onset	duration	value	accuracy	response_time	trial_type
4.01	1.389	X	1	715	first_go
5.511	1.688	M	0	935	first_nogo
7.311	1.688	T	0	694	first_nogo
9.112	1.787	F	0	644	first_nogo
11.012	1.187	D	0	702	first_nogo
12.313	1.686	X	1	682	first_go
14.098	1.401	M	0	582	first_nogo
15.598	1.301	J	0	457	first_nogo
16.998	1.201	X	1	568	first_go
18.298	1.601	J	0	626	first_nogo
19.998	1.801	J	0	375	first_nogo
21.899	1.2	+	NA	0	first_fix
23.199	1.4	B	0	749	first_nogo
24.7	1.799	L	0	676	first_nogo
26.6	1.499	P	0	528	first_nogo
28.201	1.298	B	0	443	first_nogo
29.601	1.298	X	1	568	first_go
31.001	1.598	Q	0	479	first_nogo
32.702	1.597	R	0	603	first_nogo
34.402	1.297	H	0	710	first_nogo
35.803	1.796	X	1	666	first_go
37.703	1.696	R	0	420	first_nogo
39.504	1.295	T	0	257	first_nogo
40.904	1.695	E	0	319	first_nogo
42.705	1.794	E	0	355	first_nogo
44.605	1.294	S	0	429	first_nogo
46.006	1.293	M	0	536	first_nogo
47.406	1.293	P	0	441	first_nogo
48.806	1.793	I	0	420	first_nogo
50.707	1.592	C	0	353	first_nogo
52.407	1.192	X	1	726	first_go
53.708	1.291	U	0	502	first_nogo
55.108	1.291	+	NA	0	first_fix
56.509	1.19	R	0	1036	first_nogo
57.809	1.19	H	0	500	first_nogo
59.109	1.79	X	1	764	first_go
61.01	1.189	Q	0	595	first_nogo
62.31	1.189	+	NA	0	first_fix
63.611	1.788	H	0	593	first_nogo
65.511	1.488	U	0	274	first_nogo
67.112	1.487	A	0	562	first_nogo
68.712	1.487	N	0	550	first_nogo
70.312	1.587	T	0	475	first_nogo
71.998	1.201	X	1	688	first_go
73.298	1.401	O	0	497	first_nogo
74.798	1.301	X	1	699	first_go
76.198	1.601	F	0	519	first_nogo
77.898	1.201	X	1	508	first_go
79.198	1.801	A	0	420	first_nogo
81.099	1.6	D	0	727	first_nogo
82.799	1.4	Q	0	811	first_nogo
84.3	1.299	X	1	644	first_go
85.7	1.599	U	0	617	first_nogo
87.401	1.498	X	1	689	first_go
89.001	1.198	G	0	515	first_nogo
90.301	1.498	B	0	539	first_nogo
91.902	1.497	F	0	359	first_nogo
93.502	1.297	S	0	562	first_nogo
94.903	1.596	A	0	424	first_nogo
96.603	1.696	C	0	506	first_nogo
98.404	1.595	E	0	458	first_nogo
100.104	1.295	N	0	563	first_nogo
101.505	1.694	N	0	454	first_nogo
103.305	1.194	G	0	324	first_nogo
104.606	1.293	+	NA	0	first_fix
106.006	1.793	X	1	571	first_go
107.906	1.193	L	0	391	first_nogo
109.207	1.492	L	0	439	first_nogo
110.807	1.192	O	0	652	first_nogo
112.108	1.291	O	0	463	first_nogo
113.508	1.191	X	1	572	first_go
114.808	1.691	+	NA	0	first_fix
116.609	1.19	X	1	522	first_go
117.909	1.49	X	1	625	first_go
119.51	1.289	X	1	462	first_go
120.91	1.489	+	NA	0	first_fix
122.511	1.788	D	0	606	first_nogo
124.411	1.188	C	0	301	first_nogo
125.711	1.588	X	1	628	first_go
127.412	1.687	I	0	318	first_nogo
129.212	1.487	I	0	404	first_nogo
130.798	1.801	X	0	372	first_go
132.698	1.801	P	0	372	first_nogo
134.598	1.401	S	0	310	first_nogo
136.098	1.401	G	0	378	first_nogo
137.598	1.801	X	1	560	first_go
139.499	1.5	X	1	662	second_go
141.099	1.7	X	1	397	second_go
142.9	1.399	X	1	421	second_go
144.4	1.799	X	1	609	second_go
146.301	1.398	L	0	473	second_nogo
147.801	1.298	X	0	368	second_go
149.201	1.398	X	1	646	second_go
150.702	1.597	I	0	553	second_nogo
152.402	1.797	X	1	549	second_go
154.303	1.696	X	1	548	second_go
156.103	1.296	N	0	613	second_nogo
157.504	1.495	A	0	664	second_nogo
159.104	1.395	M	0	840	second_nogo
160.605	1.494	X	1	543	second_go
162.205	1.694	X	1	527	second_go
164.006	1.793	X	1	567	second_go
165.906	1.393	X	1	491	second_go
167.407	1.492	X	1	392	second_go
169.007	1.292	X	1	325	second_go
170.407	1.492	C	0	483	second_nogo
172.008	1.191	B	0	611	second_nogo
173.308	1.491	X	1	606	second_go
174.909	1.69	X	1	503	second_go
176.709	1.29	U	0	294	second_nogo
178.11	1.789	+	NA	0	second_fix
180.01	1.589	X	1	688	second_go
181.711	1.488	X	1	824	second_go
183.311	1.388	X	1	724	second_go
184.812	1.387	X	1	643	second_go
186.312	1.787	X	1	644	second_go
188.212	1.787	X	1	579	second_go
190.098	1.701	X	1	561	second_go
191.898	1.601	X	1	722	second_go
193.598	1.801	X	1	624	second_go
195.498	1.801	X	1	652	second_go
197.398	1.601	O	0	608	second_nogo
199.099	1.4	X	1	602	second_go
200.599	1.7	X	1	451	second_go
202.4	1.299	T	0	529	second_nogo
203.8	1.599	X	1	598	second_go
205.501	1.498	L	0	610	second_nogo
207.101	1.798	X	1	590	second_go
209.002	1.597	X	1	401	second_go
210.702	1.697	O	0	535	second_nogo
212.503	1.596	+	NA	0	second_fix
214.203	1.396	X	1	667	second_go
215.704	1.595	X	1	448	second_go
217.404	1.595	D	0	517	second_nogo
219.105	1.594	X	1	653	second_go
220.805	1.194	X	1	552	second_go
222.105	1.694	X	1	535	second_go
223.906	1.593	X	1	441	second_go
225.606	1.693	X	1	504	second_go
227.407	1.192	X	1	496	second_go
228.707	1.692	X	1	523	second_go
230.508	1.591	X	1	545	second_go
232.208	1.191	X	1	620	second_go
233.509	1.49	X	1	642	second_go
235.109	1.39	X	1	580	second_go
236.609	1.29	X	1	450	second_go
238.01	1.189	X	1	516	second_go
239.31	1.389	G	0	489	second_nogo
240.811	1.288	C	0	591	second_nogo
242.211	1.588	X	1	567	second_go
243.912	1.387	N	0	559	second_nogo
245.412	1.187	X	1	570	second_go
246.712	1.187	X	1	710	second_go
248.013	1.286	X	1	481	second_go
249.398	1.401	+	NA	0	second_fix
250.898	1.601	X	1	624	second_go
252.598	1.801	+	NA	0	second_fix
254.498	1.801	X	1	698	second_go
256.398	1.701	X	1	432	second_go
258.199	1.4	R	0	527	second_nogo
259.699	1.3	X	1	534	second_go
261.1	1.699	G	0	483	second_nogo
262.9	1.699	+	NA	0	second_fix
264.701	1.498	X	1	633	second_go
266.301	1.198	X	1	466	second_go
267.602	1.597	A	0	547	second_nogo
269.302	1.797	X	1	537	second_go
271.203	1.296	J	0	561	second_nogo
272.603	1.496	P	0	660	second_nogo
274.203	1.496	X	1	575	second_go
275.804	1.395	X	1	562	second_go
277.304	1.795	M	0	596	second_nogo
279.205	1.594	+	NA	0	second_fix
280.905	1.494	X	1	650	second_go
282.506	1.693	S	0	545	second_nogo
284.306	1.293	F	0	674	second_nogo
285.707	1.392	E	0	669	second_nogo
287.207	1.392	X	1	570	second_go
288.708	1.391	X	1	540	second_go
290.208	1.691	X	1	410	second_go
292.008	1.591	X	1	406	second_go
293.709	1.69	X	1	505	second_go
295.509	1.59	X	1	483	second_go
297.21	1.389	H	0	605	second_nogo
298.71	1.189	+	NA	0	second_fix
300.011	1.388	I	0	625	second_nogo
301.511	1.788	X	1	510	second_go
303.412	1.287	X	1	523	second_go
304.812	1.787	X	1	497	second_go
306.713	1.186	X	1	410	second_go
307.998	1.601	J	0	641	second_nogo
309.698	1.301	X	1	515	second_go
311.098	1.301	X	1	488	second_go
312.498	1.501	X	1	337	second_go
314.098	1.801	S	0	548	second_nogo
315.999	1.6	X	1	527	second_go
317.699	1.6	X	1	305	second_go
319.4	1.299	X	1	364	second_go
320.8	1.199	X	1	419	second_go
322.1	1.599	X	1	547	second_go
323.801	1.798	X	1	536	second_go
325.701	1.198	P	0	477	second_nogo
327.002	1.597	+	NA	0	second_fix
328.702	1.497	X	1	430	second_go
330.303	1.296	X	1	361	second_go
331.703	1.496	U	0	537	second_nogo
333.303	1.496	+	NA	0	second_fix
334.904	1.595	X	1	534	second_go
336.604	1.395	H	0	557	second_nogo
338.105	1.394	X	1	446	second_go
339.605	1.494	X	1	628	second_go
341.206	1.193	X	1	556	second_go
342.506	1.793	T	0	538	second_nogo
344.407	1.192	Q	0	379	second_nogo
345.707	1.292	X	1	526	second_go
347.107	1.292	X	1	464	second_go
348.508	1.491	+	NA	0	second_fix
350.108	1.791	X	1	695	second_go
352.009	1.29	X	1	436	second_go
353.409	1.59	X	1	436	second_go
355.11	1.489	X	1	552	second_go
356.71	1.489	X	1	562	second_go
358.311	1.388	X	1	488	second_go
359.811	1.788	X	1	538	second_go
361.712	1.387	X	1	685	second_go
363.212	1.487	D	0	653	second_nogo
364.812	1.687	X	1	573	second_go
366.598	1.601	X	1	487	second_go
368.298	1.701	+	NA	0	second_fix
370.098	1.501	E	0	647	second_nogo
371.698	1.501	X	1	537	second_go
373.298	1.801	X	1	527	second_go
375.199	1.7	X	1	416	second_go
376.999	1.4	X	1	361	second_go
378.5	1.699	R	0	535	second_nogo
380.3	1.199	X	1	281	second_go
381.6	1.699	X	1	427	second_go
383.401	1.698	X	1	370	second_go
385.201	1.698	+	NA	0	second_fix
387.002	1.397	X	1	734	second_go
388.502	1.397	X	1	548	second_go
390.003	1.496	X	1	503	second_go
391.603	1.196	X	1	463	second_go
392.904	1.495	X	1	384	second_go
394.504	1.395	X	1	327	second_go
396.005	1.494	B	0	244	second_nogo
397.605	1.694	Q	0	546	second_nogo
399.405	1.194	X	1	505	second_go
400.706	1.393	X	1	508	second_go
402.206	1.693	X	1	430	second_go
404.007	1.692	X	1	370	second_go
405.807	1.792	X	1	302	second_go
407.708	1.191	X	1	304	second_go
409.008	1.491	X	1	437	second_go
410.609	1.39	F	0	276	second_nogo
412.109	1.49	X	1	400	second_go
413.71	1.689	X	1	464	second_go
415.51	1.189	X	1	493	second_go
