onset	duration	value	accuracy	response_time	trial_type
6.498	1.4	+	NA	0	OneBack_fix
7.914	1.483	Q	NA	739	OneBack_na
9.414	1.684	C	1	916	OneBack_NonTarget
11.115	1.583	C	1	519	OneBack_Target
12.715	1.884	F	1	621	OneBack_NonTarget
14.616	1.883	T	1	742	OneBack_NonTarget
16.516	1.984	W	1	729	OneBack_NonTarget
18.517	1.583	H	1	608	OneBack_NonTarget
20.117	1.584	H	1	821	OneBack_Target
21.718	1.383	H	1	690	OneBack_Target
23.118	1.684	R	1	565	OneBack_NonTarget
24.819	1.683	+	NA	0	OneBack_fix
26.519	1.484	Q	1	723	OneBack_NonTarget
28.02	1.883	P	1	670	OneBack_NonTarget
29.92	1.784	P	1	536	OneBack_Target
31.721	1.483	K	1	501	OneBack_NonTarget
33.221	1.984	H	1	779	OneBack_NonTarget
35.222	1.583	H	1	496	OneBack_Target
36.822	1.884	+	NA	0	OneBack_fix
38.723	1.683	K	1	534	OneBack_NonTarget
40.423	1.684	K	1	710	OneBack_Target
42.124	1.483	H	1	941	OneBack_NonTarget
43.624	1.684	W	1	720	OneBack_NonTarget
45.325	1.683	T	1	591	OneBack_NonTarget
47.025	1.884	W	1	1044	OneBack_NonTarget
48.926	1.983	W	1	796	OneBack_Target
50.926	1.384	S	1	745	OneBack_NonTarget
52.327	1.583	T	1	710	OneBack_NonTarget
53.927	1.784	+	NA	0	OneBack_fix
55.728	1.383	M	1	688	OneBack_NonTarget
57.128	1.384	M	1	701	OneBack_Target
58.528	1.684	P	1	556	OneBack_NonTarget
60.229	1.983	P	1	709	OneBack_Target
62.23	1.883	G	1	477	OneBack_NonTarget
64.13	1.484	Z	1	590	OneBack_NonTarget
65.631	1.383	V	1	708	OneBack_NonTarget
67.031	1.583	V	1	607	OneBack_Target
68.631	1.484	N	1	600	OneBack_NonTarget
70.132	1.783	B	1	695	OneBack_NonTarget
71.932	1.784	T	1	794	OneBack_NonTarget
73.733	1.883	T	1	656	OneBack_Target
75.633	1.484	D	1	567	OneBack_NonTarget
77.134	1.683	V	1	555	OneBack_NonTarget
78.834	1.584	B	1	557	OneBack_NonTarget
80.435	1.583	B	1	434	OneBack_Target
82.035	1.984	B	1	709	OneBack_Target
84.036	1.783	R	1	538	OneBack_NonTarget
85.836	1.784	D	1	709	OneBack_NonTarget
87.637	1.983	K	1	631	OneBack_NonTarget
89.637	1.384	P	1	668	OneBack_NonTarget
91.038	1.383	P	1	503	OneBack_Target
92.438	1.884	D	1	681	OneBack_NonTarget
94.339	1.383	D	1	715	OneBack_Target
95.739	1.984	D	1	762	OneBack_Target
97.74	1.383	D	1	475	OneBack_Target
99.14	1.684	D	1	509	OneBack_Target
100.841	1.683	F	1	543	OneBack_NonTarget
102.541	1.384	F	1	721	OneBack_Target
103.942	1.783	N	1	630	OneBack_NonTarget
105.742	1.983	+	NA	0	OneBack_fix
107.743	1.483	J	1	613	OneBack_NonTarget
109.243	1.683	Z	1	548	OneBack_NonTarget
110.944	1.983	S	1	451	OneBack_NonTarget
112.944	1.784	S	0	430	OneBack_Target
114.745	1.583	F	1	780	OneBack_NonTarget
116.345	1.684	F	1	645	OneBack_Target
118.046	1.783	N	1	508	OneBack_NonTarget
119.846	1.984	C	1	723	OneBack_NonTarget
121.847	1.583	Z	1	603	OneBack_NonTarget
123.447	1.384	Z	1	415	OneBack_Target
124.847	1.984	K	1	574	OneBack_NonTarget
126.848	1.384	+	NA	0	OneBack_fix
128.248	1.484	K	1	730	OneBack_Target
129.749	1.883	P	1	572	OneBack_NonTarget
131.649	1.484	G	1	648	OneBack_NonTarget
133.15	1.983	R	0	659	OneBack_NonTarget
135.15	1.584	R	1	685	OneBack_Target
136.751	1.883	L	1	577	OneBack_NonTarget
138.651	1.984	M	1	817	OneBack_NonTarget
140.652	1.783	M	1	654	OneBack_Target
142.453	1.483	P	1	607	OneBack_NonTarget
143.953	1.583	H	1	670	OneBack_NonTarget
145.553	1.484	R	1	904	OneBack_NonTarget
147.054	1.783	J	1	606	OneBack_NonTarget
148.854	1.584	R	1	888	OneBack_NonTarget
150.455	1.783	R	1	734	OneBack_Target
152.255	1.684	K	1	579	OneBack_NonTarget
153.956	1.783	H	1	677	OneBack_NonTarget
155.756	1.884	H	1	665	OneBack_Target
157.657	1.883	W	1	746	OneBack_NonTarget
159.557	1.684	W	1	664	OneBack_Target
161.258	1.583	K	1	528	OneBack_NonTarget
162.858	1.884	T	1	644	OneBack_NonTarget
164.759	1.583	T	1	496	OneBack_Target
166.359	1.684	T	1	704	OneBack_Target
168.06	1.783	F	1	569	OneBack_NonTarget
169.86	1.484	V	1	793	OneBack_NonTarget
171.361	1.783	+	NA	0	OneBack_fix
179.146	1.601	+	NA	0	ZeroBack_fix
180.764	1.883	M	1	537	ZeroBack_NonTarget
182.664	1.384	X	1	436	ZeroBack_Target
184.064	1.484	N	1	411	ZeroBack_NonTarget
185.565	1.483	V	1	460	ZeroBack_NonTarget
187.065	1.584	F	1	498	ZeroBack_NonTarget
188.666	1.483	D	1	479	ZeroBack_NonTarget
190.166	1.984	X	1	561	ZeroBack_Target
192.167	1.783	W	1	497	ZeroBack_NonTarget
193.967	1.584	N	1	472	ZeroBack_NonTarget
195.568	1.583	X	1	445	ZeroBack_Target
197.168	1.784	Q	1	520	ZeroBack_NonTarget
198.969	1.783	Q	1	527	ZeroBack_NonTarget
200.769	1.384	X	1	590	ZeroBack_Target
202.17	1.683	L	1	506	ZeroBack_NonTarget
203.87	1.984	+	NA	0	ZeroBack_fix
205.871	1.583	F	1	599	ZeroBack_NonTarget
207.471	1.984	Z	1	498	ZeroBack_NonTarget
209.472	1.683	J	1	528	ZeroBack_NonTarget
211.172	1.984	H	1	594	ZeroBack_NonTarget
213.173	1.883	V	1	604	ZeroBack_NonTarget
215.073	1.384	F	1	488	ZeroBack_NonTarget
216.474	1.783	X	1	549	ZeroBack_Target
218.274	1.784	X	1	606	ZeroBack_Target
220.075	1.483	P	1	519	ZeroBack_NonTarget
221.575	1.884	B	1	595	ZeroBack_NonTarget
223.476	1.983	S	1	473	ZeroBack_NonTarget
225.476	1.684	X	1	580	ZeroBack_Target
227.177	1.583	X	1	658	ZeroBack_Target
228.777	1.584	D	1	499	ZeroBack_NonTarget
230.378	1.883	X	1	761	ZeroBack_Target
232.278	1.584	P	1	498	ZeroBack_NonTarget
233.879	1.583	X	1	530	ZeroBack_Target
235.479	1.684	J	1	513	ZeroBack_NonTarget
237.18	1.783	D	1	709	ZeroBack_NonTarget
238.98	1.584	B	1	555	ZeroBack_NonTarget
240.581	1.383	+	NA	0	ZeroBack_fix
241.981	1.384	X	1	747	ZeroBack_Target
243.381	1.684	L	1	729	ZeroBack_NonTarget
245.082	1.783	V	1	793	ZeroBack_NonTarget
246.882	1.484	C	1	527	ZeroBack_NonTarget
248.383	1.983	G	1	578	ZeroBack_NonTarget
250.383	1.984	M	1	534	ZeroBack_NonTarget
252.384	1.983	P	1	558	ZeroBack_NonTarget
254.385	1.783	X	1	577	ZeroBack_Target
256.185	1.884	D	1	559	ZeroBack_NonTarget
258.086	1.583	X	1	624	ZeroBack_Target
259.686	1.784	S	1	713	ZeroBack_NonTarget
261.487	1.983	+	NA	0	ZeroBack_fix
263.487	1.384	J	1	676	ZeroBack_NonTarget
264.888	1.683	X	1	588	ZeroBack_Target
266.588	1.984	B	1	434	ZeroBack_NonTarget
268.589	1.383	X	1	624	ZeroBack_Target
269.989	1.784	R	1	585	ZeroBack_NonTarget
271.79	1.783	R	1	1209	ZeroBack_NonTarget
273.59	1.684	+	NA	0	ZeroBack_fix
275.291	1.883	H	1	620	ZeroBack_NonTarget
277.191	1.784	X	1	664	ZeroBack_Target
278.992	1.883	S	1	560	ZeroBack_NonTarget
280.892	1.884	B	1	565	ZeroBack_NonTarget
282.793	1.883	D	1	489	ZeroBack_NonTarget
284.693	1.784	X	1	546	ZeroBack_Target
286.494	1.483	N	1	421	ZeroBack_NonTarget
287.994	1.684	X	1	660	ZeroBack_Target
289.695	1.683	R	1	695	ZeroBack_NonTarget
291.395	1.484	S	1	647	ZeroBack_NonTarget
292.896	1.683	X	1	592	ZeroBack_Target
294.596	1.984	J	1	583	ZeroBack_NonTarget
296.597	1.683	X	1	672	ZeroBack_Target
298.297	1.384	X	1	675	ZeroBack_Target
299.698	1.583	F	1	749	ZeroBack_NonTarget
301.298	1.884	+	NA	0	ZeroBack_fix
303.199	1.483	T	1	671	ZeroBack_NonTarget
304.699	1.883	X	1	652	ZeroBack_Target
306.6	1.583	B	1	446	ZeroBack_NonTarget
308.2	1.583	F	1	746	ZeroBack_NonTarget
309.8	1.684	F	1	590	ZeroBack_NonTarget
311.501	1.783	B	1	846	ZeroBack_NonTarget
313.301	1.984	K	1	632	ZeroBack_NonTarget
315.302	1.384	Q	1	516	ZeroBack_NonTarget
316.702	1.984	T	1	526	ZeroBack_NonTarget
318.703	1.783	X	1	486	ZeroBack_Target
320.504	1.683	X	1	586	ZeroBack_Target
322.204	1.483	W	1	571	ZeroBack_NonTarget
323.704	1.484	+	NA	0	ZeroBack_fix
325.205	1.383	X	1	644	ZeroBack_Target
326.605	1.884	Z	1	507	ZeroBack_NonTarget
328.506	1.583	P	1	512	ZeroBack_NonTarget
330.106	1.384	S	1	504	ZeroBack_NonTarget
331.507	1.683	X	1	538	ZeroBack_Target
333.207	1.884	X	1	546	ZeroBack_Target
335.108	1.483	V	1	547	ZeroBack_NonTarget
336.608	1.484	D	1	516	ZeroBack_NonTarget
338.109	1.483	X	1	591	ZeroBack_Target
339.609	1.683	X	1	624	ZeroBack_Target
341.309	1.684	G	1	614	ZeroBack_NonTarget
343.01	1.383	X	1	600	ZeroBack_Target
344.41	1.384	+	NA	0	ZeroBack_fix
351.796	1.8	+	NA	0	TwoBack_fix
353.613	1.983	V	NA	548	TwoBack_na
355.614	1.983	P	NA	319	TwoBack_na
357.614	1.584	F	1	522	TwoBack_NonTarget
359.215	1.783	P	1	756	TwoBack_Target
361.015	1.484	H	1	505	TwoBack_NonTarget
362.516	1.783	V	1	935	TwoBack_NonTarget
364.316	1.684	N	1	719	TwoBack_NonTarget
366.017	1.683	V	1	681	TwoBack_Target
367.717	1.984	C	1	514	TwoBack_NonTarget
369.718	1.883	D	1	459	TwoBack_NonTarget
371.618	1.984	N	1	440	TwoBack_NonTarget
373.619	1.683	D	1	437	TwoBack_Target
375.319	1.884	K	1	478	TwoBack_NonTarget
377.22	1.783	P	1	388	TwoBack_NonTarget
379.02	1.884	+	NA	0	TwoBack_fix
380.921	1.383	K	1	431	TwoBack_Target
382.321	1.684	F	1	535	TwoBack_NonTarget
384.022	1.883	Q	1	505	TwoBack_NonTarget
385.922	1.584	F	1	471	TwoBack_Target
387.523	1.883	S	1	330	TwoBack_NonTarget
389.423	1.584	T	1	356	TwoBack_NonTarget
391.024	1.683	D	1	507	TwoBack_NonTarget
392.724	1.384	T	1	356	TwoBack_Target
394.125	1.983	C	1	482	TwoBack_NonTarget
396.125	1.684	M	1	539	TwoBack_NonTarget
397.826	1.983	C	1	417	TwoBack_Target
399.826	1.784	K	1	374	TwoBack_NonTarget
401.627	1.883	S	1	333	TwoBack_NonTarget
403.527	1.584	P	1	434	TwoBack_NonTarget
405.128	1.783	S	1	328	TwoBack_Target
406.928	1.584	W	1	324	TwoBack_NonTarget
408.529	1.983	S	1	1150	TwoBack_Target
410.529	1.984	+	NA	0	TwoBack_fix
412.53	1.583	B	1	528	TwoBack_NonTarget
414.13	1.884	Z	1	459	TwoBack_NonTarget
416.031	1.483	B	1	396	TwoBack_Target
417.531	1.584	Z	0	361	TwoBack_Target
419.132	1.483	B	1	1007	TwoBack_Target
420.632	1.384	K	1	548	TwoBack_NonTarget
422.033	1.383	L	1	489	TwoBack_NonTarget
423.433	1.383	D	1	644	TwoBack_NonTarget
424.833	1.484	W	1	511	TwoBack_NonTarget
426.334	1.483	D	1	531	TwoBack_Target
427.834	1.984	P	1	633	TwoBack_NonTarget
429.835	1.583	P	0	696	TwoBack_NonTarget
431.435	1.484	P	1	754	TwoBack_Target
432.936	1.683	M	1	525	TwoBack_NonTarget
434.636	1.484	R	1	598	TwoBack_NonTarget
436.137	1.783	H	1	618	TwoBack_NonTarget
437.937	1.584	R	1	440	TwoBack_Target
439.538	1.983	Z	1	485	TwoBack_NonTarget
441.538	1.384	D	1	853	TwoBack_NonTarget
442.939	1.783	G	1	738	TwoBack_NonTarget
444.739	1.784	D	1	313	TwoBack_Target
446.54	1.383	T	1	411	TwoBack_NonTarget
447.94	1.584	Y	1	563	TwoBack_NonTarget
449.54	1.784	T	1	736	TwoBack_Target
451.341	1.583	C	1	407	TwoBack_NonTarget
452.941	1.484	+	NA	0	TwoBack_fix
454.442	1.683	K	1	519	TwoBack_NonTarget
456.142	1.384	D	1	801	TwoBack_NonTarget
457.543	1.883	K	1	436	TwoBack_Target
459.443	1.784	B	1	712	TwoBack_NonTarget
461.244	1.483	V	1	545	TwoBack_NonTarget
462.744	1.884	Z	1	481	TwoBack_NonTarget
464.645	1.983	V	1	324	TwoBack_Target
466.645	1.684	Z	0	536	TwoBack_Target
468.346	1.783	V	0	666	TwoBack_Target
470.146	1.784	P	1	739	TwoBack_NonTarget
471.947	1.783	H	1	600	TwoBack_NonTarget
473.747	1.484	P	1	385	TwoBack_Target
475.248	1.483	T	1	531	TwoBack_NonTarget
476.748	1.984	P	1	769	TwoBack_Target
478.749	1.583	H	1	1109	TwoBack_NonTarget
480.349	1.884	H	0	886	TwoBack_NonTarget
482.25	1.583	H	1	782	TwoBack_Target
483.85	1.684	C	1	523	TwoBack_NonTarget
485.551	1.683	D	1	770	TwoBack_NonTarget
487.251	1.384	J	1	666	TwoBack_NonTarget
488.652	1.483	P	1	741	TwoBack_NonTarget
490.152	1.684	J	1	471	TwoBack_Target
491.853	1.783	+	NA	0	TwoBack_fix
493.653	1.584	D	1	602	TwoBack_NonTarget
495.254	1.583	Q	1	566	TwoBack_NonTarget
496.854	1.884	D	1	620	TwoBack_Target
498.755	1.683	Q	1	771	TwoBack_Target
500.455	1.684	F	1	635	TwoBack_NonTarget
502.156	1.983	Z	1	605	TwoBack_NonTarget
504.156	1.684	T	1	552	TwoBack_NonTarget
505.857	1.383	Z	1	394	TwoBack_Target
507.257	1.483	M	1	528	TwoBack_NonTarget
508.757	1.384	D	0	999	TwoBack_NonTarget
510.158	1.383	J	0	1294	TwoBack_NonTarget
511.558	1.884	D	1	993	TwoBack_Target
513.459	1.383	W	1	579	TwoBack_NonTarget
514.859	1.684	D	1	653	TwoBack_Target
516.56	1.883	+	NA	0	TwoBack_fix
