onset	duration	value	accuracy	response_time	trial_type
6.504	1.9	+	NA	0	ZeroBack_fix
8.421	1.584	M	0	0	ZeroBack_NonTarget
10.022	1.483	X	1	793	ZeroBack_Target
11.522	1.784	N	0	0	ZeroBack_NonTarget
13.323	1.983	V	0	420	ZeroBack_NonTarget
15.323	1.984	F	1	556	ZeroBack_NonTarget
17.324	1.983	D	1	603	ZeroBack_NonTarget
19.325	1.983	X	1	690	ZeroBack_Target
21.325	1.984	W	1	602	ZeroBack_NonTarget
23.326	1.583	N	1	609	ZeroBack_NonTarget
24.926	1.884	X	1	865	ZeroBack_Target
26.827	1.383	Q	1	484	ZeroBack_NonTarget
28.227	1.584	Q	1	764	ZeroBack_NonTarget
29.828	1.883	X	1	691	ZeroBack_Target
31.728	1.984	L	1	463	ZeroBack_NonTarget
33.729	1.983	+	NA	0	ZeroBack_fix
35.729	1.584	F	1	646	ZeroBack_NonTarget
37.33	1.483	Z	1	757	ZeroBack_NonTarget
38.83	1.584	J	1	505	ZeroBack_NonTarget
40.431	1.483	H	1	520	ZeroBack_NonTarget
41.931	1.383	V	1	596	ZeroBack_NonTarget
43.331	1.884	F	1	684	ZeroBack_NonTarget
45.232	1.883	X	0	519	ZeroBack_Target
47.132	1.884	X	1	739	ZeroBack_Target
49.033	1.483	P	1	630	ZeroBack_NonTarget
50.533	1.684	B	1	682	ZeroBack_NonTarget
52.234	1.483	S	1	661	ZeroBack_NonTarget
53.734	1.784	X	1	745	ZeroBack_Target
55.535	1.383	X	1	744	ZeroBack_Target
56.935	1.684	D	1	631	ZeroBack_NonTarget
58.636	1.783	X	1	706	ZeroBack_Target
60.436	1.884	P	1	714	ZeroBack_NonTarget
62.337	1.383	X	1	557	ZeroBack_Target
63.737	1.684	J	1	637	ZeroBack_NonTarget
65.438	1.483	D	1	944	ZeroBack_NonTarget
66.938	1.584	B	1	916	ZeroBack_NonTarget
68.539	1.883	+	NA	0	ZeroBack_fix
70.439	1.484	X	1	727	ZeroBack_Target
71.939	1.884	L	1	611	ZeroBack_NonTarget
73.84	1.583	V	1	662	ZeroBack_NonTarget
75.44	1.484	C	1	446	ZeroBack_NonTarget
76.941	1.783	G	1	537	ZeroBack_NonTarget
78.741	1.984	M	1	449	ZeroBack_NonTarget
80.742	1.383	P	1	408	ZeroBack_NonTarget
82.142	1.584	X	1	568	ZeroBack_Target
83.743	1.383	D	1	519	ZeroBack_NonTarget
85.143	1.584	X	1	631	ZeroBack_Target
86.744	1.683	S	1	526	ZeroBack_NonTarget
88.444	1.484	+	NA	0	ZeroBack_fix
89.945	1.683	J	1	597	ZeroBack_NonTarget
91.645	1.684	X	1	681	ZeroBack_Target
93.346	1.883	B	1	556	ZeroBack_NonTarget
95.246	1.784	X	1	696	ZeroBack_Target
97.047	1.883	R	1	551	ZeroBack_NonTarget
98.947	1.584	R	1	611	ZeroBack_NonTarget
100.548	1.383	+	NA	0	ZeroBack_fix
101.948	1.383	H	1	634	ZeroBack_NonTarget
103.348	1.884	X	1	730	ZeroBack_Target
105.249	1.583	S	1	517	ZeroBack_NonTarget
106.849	1.484	B	1	581	ZeroBack_NonTarget
108.35	1.983	D	1	648	ZeroBack_NonTarget
110.35	1.584	X	0	448	ZeroBack_Target
111.951	1.583	N	1	655	ZeroBack_NonTarget
113.551	1.684	X	1	646	ZeroBack_Target
115.252	1.683	R	1	498	ZeroBack_NonTarget
116.952	1.384	S	1	717	ZeroBack_NonTarget
118.353	1.983	X	1	644	ZeroBack_Target
120.353	1.684	J	1	500	ZeroBack_NonTarget
122.054	1.483	X	1	551	ZeroBack_Target
123.554	1.684	X	1	763	ZeroBack_Target
125.255	1.383	F	1	566	ZeroBack_NonTarget
126.655	1.783	+	NA	0	ZeroBack_fix
128.44	1.499	T	1	645	ZeroBack_NonTarget
129.956	1.583	X	1	673	ZeroBack_Target
131.556	1.684	B	1	521	ZeroBack_NonTarget
133.257	1.783	F	1	644	ZeroBack_NonTarget
135.057	1.984	F	1	556	ZeroBack_NonTarget
137.058	1.683	B	0	0	ZeroBack_NonTarget
138.758	1.784	K	1	615	ZeroBack_NonTarget
140.559	1.783	Q	1	438	ZeroBack_NonTarget
142.359	1.884	T	1	622	ZeroBack_NonTarget
144.26	1.683	X	1	649	ZeroBack_Target
145.96	1.584	X	1	733	ZeroBack_Target
147.561	1.783	W	1	612	ZeroBack_NonTarget
149.361	1.784	+	NA	0	ZeroBack_fix
151.162	1.383	X	1	707	ZeroBack_Target
152.562	1.984	Z	1	699	ZeroBack_NonTarget
154.563	1.683	P	1	938	ZeroBack_NonTarget
156.263	1.784	S	1	846	ZeroBack_NonTarget
158.064	1.383	X	1	573	ZeroBack_Target
159.464	1.484	X	0	629	ZeroBack_Target
160.965	1.783	V	1	576	ZeroBack_NonTarget
162.765	1.384	D	1	712	ZeroBack_NonTarget
164.166	1.683	X	1	615	ZeroBack_Target
165.866	1.784	X	1	747	ZeroBack_Target
167.667	1.983	G	1	618	ZeroBack_NonTarget
169.667	1.684	X	1	746	ZeroBack_Target
171.368	1.783	+	NA	0	ZeroBack_fix
179.153	1.6	+	NA	0	OneBack_fix
180.77	1.684	Q	NA	0	OneBack_na
182.471	1.983	C	1	21	OneBack_NonTarget
184.471	1.984	C	0	0	OneBack_Target
186.472	1.783	F	0	0	OneBack_NonTarget
188.257	1.799	T	0	0	OneBack_NonTarget
190.073	1.483	W	1	811	OneBack_NonTarget
191.573	1.384	H	0	0	OneBack_NonTarget
192.974	1.383	H	1	822	OneBack_Target
194.374	1.584	H	0	0	OneBack_Target
195.975	1.383	R	1	349	OneBack_NonTarget
197.375	1.384	+	NA	0	OneBack_fix
198.775	1.784	Q	1	645	OneBack_NonTarget
200.576	1.783	P	1	716	OneBack_NonTarget
202.376	1.484	P	1	612	OneBack_Target
203.877	1.683	K	1	727	OneBack_NonTarget
205.577	1.484	H	1	763	OneBack_NonTarget
207.078	1.683	H	0	0	OneBack_Target
208.778	1.584	+	NA	0	OneBack_fix
210.379	1.583	K	0	0	OneBack_NonTarget
211.979	1.784	K	1	745	OneBack_Target
213.78	1.883	H	1	872	OneBack_NonTarget
215.68	1.384	W	0	0	OneBack_NonTarget
217.081	1.683	T	1	635	OneBack_NonTarget
218.781	1.884	W	0	759	OneBack_NonTarget
220.682	1.783	W	0	0	OneBack_Target
222.482	1.984	S	1	914	OneBack_NonTarget
224.483	1.883	T	1	793	OneBack_NonTarget
226.383	1.384	+	NA	0	OneBack_fix
227.784	1.683	M	0	0	OneBack_NonTarget
229.484	1.784	M	0	0	OneBack_Target
231.285	1.383	P	1	415	OneBack_NonTarget
232.685	1.784	P	1	886	OneBack_Target
234.486	1.383	G	0	0	OneBack_NonTarget
235.886	1.783	Z	1	549	OneBack_NonTarget
237.686	1.384	V	1	693	OneBack_NonTarget
239.087	1.883	V	1	916	OneBack_Target
240.987	1.884	N	1	992	OneBack_NonTarget
242.888	1.883	B	0	0	OneBack_NonTarget
244.773	1.999	T	0	0	OneBack_NonTarget
246.789	1.484	T	1	966	OneBack_Target
248.29	1.883	D	1	897	OneBack_NonTarget
250.19	1.484	V	0	0	OneBack_NonTarget
251.69	1.584	B	0	0	OneBack_NonTarget
253.291	1.983	B	0	0	OneBack_Target
255.291	1.984	B	0	0	OneBack_Target
257.292	1.984	R	1	839	OneBack_NonTarget
259.293	1.983	D	1	750	OneBack_NonTarget
261.293	1.784	K	1	662	OneBack_NonTarget
263.094	1.483	P	1	677	OneBack_NonTarget
264.594	1.684	P	0	0	OneBack_Target
266.295	1.883	D	1	828	OneBack_NonTarget
268.195	1.684	D	0	744	OneBack_Target
269.896	1.383	D	1	875	OneBack_Target
271.296	1.483	D	0	0	OneBack_Target
272.796	1.784	D	0	0	OneBack_Target
274.597	1.983	F	1	598	OneBack_NonTarget
276.598	1.483	F	0	0	OneBack_Target
278.098	1.483	N	0	0	OneBack_NonTarget
279.598	1.884	+	NA	0	OneBack_fix
281.499	1.583	J	1	728	OneBack_NonTarget
283.099	1.684	Z	1	688	OneBack_NonTarget
284.8	1.383	S	1	739	OneBack_NonTarget
286.2	1.684	S	1	954	OneBack_Target
287.901	1.983	F	1	854	OneBack_NonTarget
289.901	1.884	F	0	0	OneBack_Target
291.802	1.583	N	1	856	OneBack_NonTarget
293.402	1.784	C	1	856	OneBack_NonTarget
295.203	1.583	Z	0	0	OneBack_NonTarget
296.803	1.984	Z	0	0	OneBack_Target
298.804	1.883	K	1	638	OneBack_NonTarget
300.704	1.784	+	NA	0	OneBack_fix
302.505	1.683	K	1	969	OneBack_Target
304.205	1.684	P	1	917	OneBack_NonTarget
305.906	1.683	G	0	0	OneBack_NonTarget
307.606	1.484	R	1	716	OneBack_NonTarget
309.107	1.983	R	1	863	OneBack_Target
311.107	1.484	L	0	0	OneBack_NonTarget
312.608	1.583	M	0	0	OneBack_NonTarget
314.208	1.884	M	1	986	OneBack_Target
316.109	1.683	P	1	581	OneBack_NonTarget
317.809	1.584	H	1	809	OneBack_NonTarget
319.41	1.383	R	1	952	OneBack_NonTarget
320.81	1.684	J	1	776	OneBack_NonTarget
322.511	1.983	R	0	0	OneBack_NonTarget
324.511	1.784	R	1	995	OneBack_Target
326.312	1.683	K	1	786	OneBack_NonTarget
328.012	1.584	H	1	942	OneBack_NonTarget
329.613	1.483	H	0	0	OneBack_Target
331.113	1.583	W	1	849	OneBack_NonTarget
332.713	1.384	W	0	977	OneBack_Target
334.114	1.883	K	1	680	OneBack_NonTarget
336.014	1.784	T	1	660	OneBack_NonTarget
337.815	1.683	T	1	619	OneBack_Target
339.515	1.584	T	1	855	OneBack_Target
341.116	1.483	F	1	694	OneBack_NonTarget
342.616	1.584	V	1	906	OneBack_NonTarget
344.217	1.583	+	NA	0	OneBack_fix
351.802	1.6	+	NA	0	TwoBack_fix
353.419	1.784	V	NA	950	TwoBack_na
355.22	1.383	P	NA	677	TwoBack_na
356.62	1.984	F	0	0	TwoBack_NonTarget
358.621	1.383	P	0	0	TwoBack_Target
360.021	1.884	H	0	380	TwoBack_NonTarget
361.922	1.683	V	1	367	TwoBack_NonTarget
363.622	1.684	N	0	0	TwoBack_NonTarget
365.323	1.983	V	0	750	TwoBack_Target
367.323	1.384	C	1	646	TwoBack_NonTarget
368.724	1.683	D	0	0	TwoBack_NonTarget
370.424	1.484	N	0	0	TwoBack_NonTarget
371.925	1.483	D	0	0	TwoBack_Target
373.425	1.383	K	0	0	TwoBack_NonTarget
374.825	1.984	P	1	464	TwoBack_NonTarget
376.826	1.683	+	NA	0	TwoBack_fix
378.526	1.584	K	0	779	TwoBack_Target
380.127	1.383	F	0	0	TwoBack_NonTarget
381.527	1.884	Q	0	0	TwoBack_NonTarget
383.428	1.483	F	0	0	TwoBack_Target
384.928	1.684	S	1	649	TwoBack_NonTarget
386.629	1.883	T	1	652	TwoBack_NonTarget
388.529	1.984	D	0	0	TwoBack_NonTarget
390.53	1.683	T	0	0	TwoBack_Target
392.23	1.584	C	0	0	TwoBack_NonTarget
393.831	1.683	M	0	0	TwoBack_NonTarget
395.531	1.684	C	0	0	TwoBack_Target
397.232	1.383	K	0	0	TwoBack_NonTarget
398.632	1.784	S	1	433	TwoBack_NonTarget
400.433	1.383	P	1	839	TwoBack_NonTarget
401.833	1.384	S	0	0	TwoBack_Target
403.233	1.484	W	0	0	TwoBack_NonTarget
404.734	1.583	S	0	0	TwoBack_Target
406.334	1.584	+	NA	747	TwoBack_fix
407.935	1.783	B	0	0	TwoBack_NonTarget
409.735	1.884	Z	0	0	TwoBack_NonTarget
411.636	1.983	B	0	0	TwoBack_Target
413.636	1.584	Z	1	316	TwoBack_Target
415.237	1.483	B	0	859	TwoBack_Target
416.737	1.984	K	0	0	TwoBack_NonTarget
418.738	1.983	L	0	0	TwoBack_NonTarget
420.738	1.384	D	0	0	TwoBack_NonTarget
422.139	1.683	W	0	0	TwoBack_NonTarget
423.839	1.584	D	0	0	TwoBack_Target
425.44	1.883	P	0	200	TwoBack_NonTarget
427.34	1.884	P	0	0	TwoBack_NonTarget
429.241	1.883	P	0	783	TwoBack_Target
431.141	1.584	M	0	0	TwoBack_NonTarget
432.742	1.783	R	0	0	TwoBack_NonTarget
434.542	1.884	H	0	0	TwoBack_NonTarget
436.443	1.783	R	0	0	TwoBack_Target
438.243	1.684	Z	0	0	TwoBack_NonTarget
439.944	1.683	D	0	0	TwoBack_NonTarget
441.644	1.584	G	1	236	TwoBack_NonTarget
443.245	1.883	D	0	563	TwoBack_Target
445.145	1.484	T	0	0	TwoBack_NonTarget
446.646	1.483	Y	0	0	TwoBack_NonTarget
448.146	1.484	T	1	926	TwoBack_Target
449.647	1.983	C	1	665	TwoBack_NonTarget
451.647	1.884	+	NA	0	TwoBack_fix
453.548	1.783	K	1	820	TwoBack_NonTarget
455.348	1.484	D	1	884	TwoBack_NonTarget
456.849	1.783	K	1	927	TwoBack_Target
458.649	1.484	B	1	807	TwoBack_NonTarget
460.15	1.783	V	1	842	TwoBack_NonTarget
461.95	1.684	Z	1	841	TwoBack_NonTarget
463.651	1.583	V	0	0	TwoBack_Target
465.251	1.984	Z	0	0	TwoBack_Target
467.252	1.883	V	0	0	TwoBack_Target
469.152	1.384	P	1	375	TwoBack_NonTarget
470.553	1.783	H	1	846	TwoBack_NonTarget
472.353	1.584	P	1	814	TwoBack_Target
473.954	1.983	T	0	0	TwoBack_NonTarget
475.954	1.784	P	0	0	TwoBack_Target
477.755	1.383	H	0	164	TwoBack_NonTarget
479.155	1.383	H	0	0	TwoBack_NonTarget
480.555	1.684	H	1	252	TwoBack_Target
482.256	1.583	C	0	0	TwoBack_NonTarget
483.856	1.484	D	1	215	TwoBack_NonTarget
485.357	1.683	J	1	274	TwoBack_NonTarget
487.057	1.484	P	1	302	TwoBack_NonTarget
488.558	1.983	J	0	9	TwoBack_Target
490.558	1.784	+	NA	0	TwoBack_fix
492.359	1.983	D	1	664	TwoBack_NonTarget
494.359	1.484	Q	1	704	TwoBack_NonTarget
495.86	1.883	D	0	0	TwoBack_Target
497.76	1.384	Q	0	0	TwoBack_Target
499.161	1.583	F	0	566	TwoBack_NonTarget
500.761	1.584	Z	0	0	TwoBack_NonTarget
502.362	1.783	T	0	0	TwoBack_NonTarget
504.162	1.784	Z	0	0	TwoBack_Target
505.963	1.583	M	0	20	TwoBack_NonTarget
507.563	1.784	D	0	0	TwoBack_NonTarget
509.364	1.683	J	0	0	TwoBack_NonTarget
511.064	1.983	D	1	935	TwoBack_Target
513.065	1.883	W	1	718	TwoBack_NonTarget
514.965	1.784	D	0	961	TwoBack_Target
516.766	1.683	+	NA	0	TwoBack_fix
