onset	duration	value	accuracy	response_time	trial_type
6.509	2	+	NA	0	OneBack_fix
8.526	1.884	Q	NA	505	OneBack_na
10.427	1.683	C	0	0	OneBack_NonTarget
12.127	1.384	C	0	320	OneBack_Target
13.528	1.883	F	0	135	OneBack_NonTarget
15.428	1.984	T	1	819	OneBack_NonTarget
17.429	1.783	W	1	538	OneBack_NonTarget
19.229	1.884	H	1	530	OneBack_NonTarget
21.13	1.483	H	1	989	OneBack_Target
22.63	1.584	H	1	673	OneBack_Target
24.231	1.783	R	1	456	OneBack_NonTarget
26.031	1.684	+	NA	0	OneBack_fix
27.732	1.683	Q	1	715	OneBack_NonTarget
29.432	1.984	P	1	663	OneBack_NonTarget
31.433	1.583	P	1	590	OneBack_Target
33.033	1.884	K	1	478	OneBack_NonTarget
34.934	1.983	H	1	769	OneBack_NonTarget
36.934	1.884	H	1	385	OneBack_Target
38.835	1.583	+	NA	0	OneBack_fix
40.435	1.384	K	1	580	OneBack_NonTarget
41.836	1.783	K	1	611	OneBack_Target
43.636	1.484	H	1	931	OneBack_NonTarget
45.137	1.683	W	1	814	OneBack_NonTarget
46.837	1.684	T	1	706	OneBack_NonTarget
48.538	1.983	W	0	0	OneBack_NonTarget
50.538	1.784	W	1	389	OneBack_Target
52.339	1.683	S	1	628	OneBack_NonTarget
54.039	1.884	T	0	0	OneBack_NonTarget
55.94	1.383	+	NA	0	OneBack_fix
57.34	1.384	M	1	507	OneBack_NonTarget
58.741	1.983	M	1	561	OneBack_Target
60.741	1.384	P	1	593	OneBack_NonTarget
62.142	1.383	P	1	633	OneBack_Target
63.542	1.683	G	1	568	OneBack_NonTarget
65.242	1.484	Z	1	548	OneBack_NonTarget
66.743	1.683	V	1	447	OneBack_NonTarget
68.443	1.384	V	1	379	OneBack_Target
69.844	1.683	N	1	570	OneBack_NonTarget
71.544	1.984	B	1	534	OneBack_NonTarget
73.545	1.583	T	1	613	OneBack_NonTarget
75.145	1.784	T	1	421	OneBack_Target
76.946	1.783	D	1	500	OneBack_NonTarget
78.746	1.384	V	1	932	OneBack_NonTarget
80.147	1.583	B	1	699	OneBack_NonTarget
81.747	1.784	B	1	339	OneBack_Target
83.548	1.683	B	1	594	OneBack_Target
85.248	1.884	R	1	422	OneBack_NonTarget
87.149	1.583	D	1	577	OneBack_NonTarget
88.749	1.584	K	1	473	OneBack_NonTarget
90.35	1.683	P	1	416	OneBack_NonTarget
92.05	1.584	P	1	420	OneBack_Target
93.651	1.983	D	1	475	OneBack_NonTarget
95.651	1.484	D	1	531	OneBack_Target
97.152	1.583	D	1	566	OneBack_Target
98.752	1.384	D	0	542	OneBack_Target
100.152	1.784	D	1	662	OneBack_Target
101.953	1.483	F	1	789	OneBack_NonTarget
103.453	1.484	F	1	481	OneBack_Target
104.954	1.983	N	1	500	OneBack_NonTarget
106.954	1.784	+	NA	0	OneBack_fix
108.755	1.483	J	1	819	OneBack_NonTarget
110.255	1.584	Z	1	775	OneBack_NonTarget
111.856	1.683	S	1	526	OneBack_NonTarget
113.556	1.584	S	1	450	OneBack_Target
115.157	1.783	F	1	545	OneBack_NonTarget
116.957	1.884	F	1	489	OneBack_Target
118.858	1.483	N	1	564	OneBack_NonTarget
120.358	1.884	C	1	672	OneBack_NonTarget
122.259	1.483	Z	1	667	OneBack_NonTarget
123.759	1.784	Z	1	471	OneBack_Target
125.56	1.683	K	1	494	OneBack_NonTarget
127.26	1.484	+	NA	0	OneBack_fix
128.761	1.583	K	1	581	OneBack_Target
130.361	1.684	P	1	653	OneBack_NonTarget
132.062	1.483	G	1	463	OneBack_NonTarget
133.562	1.384	R	1	499	OneBack_NonTarget
134.962	1.984	R	1	539	OneBack_Target
136.963	1.783	L	1	522	OneBack_NonTarget
138.764	1.983	M	1	641	OneBack_NonTarget
140.764	1.884	M	1	657	OneBack_Target
142.665	1.383	P	1	700	OneBack_NonTarget
144.065	1.584	H	1	548	OneBack_NonTarget
145.666	1.783	R	1	563	OneBack_NonTarget
147.466	1.684	J	1	707	OneBack_NonTarget
149.167	1.883	R	1	462	OneBack_NonTarget
151.067	1.584	R	1	426	OneBack_Target
152.668	1.483	K	1	561	OneBack_NonTarget
154.168	1.883	H	1	533	OneBack_NonTarget
156.068	1.984	H	1	633	OneBack_Target
158.069	1.384	W	1	440	OneBack_NonTarget
159.469	1.684	W	1	624	OneBack_Target
161.17	1.783	K	1	515	OneBack_NonTarget
162.97	1.884	T	1	443	OneBack_NonTarget
164.871	1.784	T	1	478	OneBack_Target
166.672	1.383	T	1	565	OneBack_Target
168.072	1.583	F	1	517	OneBack_NonTarget
169.672	1.484	V	1	573	OneBack_NonTarget
171.173	1.983	+	NA	0	OneBack_fix
179.158	1.801	+	NA	0	TwoBack_fix
180.976	1.783	V	NA	349	TwoBack_na
182.776	1.884	P	NA	397	TwoBack_na
184.677	1.683	F	1	688	TwoBack_NonTarget
186.377	1.384	P	1	620	TwoBack_Target
187.778	1.383	H	1	819	TwoBack_NonTarget
189.178	1.583	V	1	923	TwoBack_NonTarget
190.763	1.499	N	1	890	TwoBack_NonTarget
192.279	1.483	V	1	582	TwoBack_Target
193.779	1.584	C	1	730	TwoBack_NonTarget
195.38	1.983	D	1	593	TwoBack_NonTarget
197.38	1.984	N	1	801	TwoBack_NonTarget
199.381	1.883	D	1	552	TwoBack_Target
201.281	1.484	K	0	0	TwoBack_NonTarget
202.782	1.683	P	1	783	TwoBack_NonTarget
204.482	1.584	+	NA	0	TwoBack_fix
206.083	1.583	K	0	586	TwoBack_Target
207.683	1.484	F	1	857	TwoBack_NonTarget
209.184	1.583	Q	1	661	TwoBack_NonTarget
210.784	1.784	F	1	956	TwoBack_Target
212.585	1.583	S	1	563	TwoBack_NonTarget
214.185	1.584	T	1	795	TwoBack_NonTarget
215.786	1.383	D	1	858	TwoBack_NonTarget
217.186	1.884	T	1	618	TwoBack_Target
219.087	1.383	C	1	501	TwoBack_NonTarget
220.487	1.983	M	1	717	TwoBack_NonTarget
222.488	1.683	C	1	540	TwoBack_Target
224.188	1.484	K	1	800	TwoBack_NonTarget
225.688	1.484	S	1	892	TwoBack_NonTarget
227.189	1.383	P	1	815	TwoBack_NonTarget
228.589	1.884	S	1	727	TwoBack_Target
230.49	1.883	W	1	546	TwoBack_NonTarget
232.39	1.484	S	1	502	TwoBack_Target
233.891	1.683	+	NA	0	TwoBack_fix
235.591	1.684	B	1	605	TwoBack_NonTarget
237.292	1.883	Z	1	656	TwoBack_NonTarget
239.192	1.684	B	1	396	TwoBack_Target
240.893	1.683	Z	1	447	TwoBack_Target
242.593	1.884	B	1	691	TwoBack_Target
244.494	1.883	K	1	662	TwoBack_NonTarget
246.394	1.484	L	1	674	TwoBack_NonTarget
247.895	1.783	D	0	749	TwoBack_NonTarget
249.695	1.884	W	0	0	TwoBack_NonTarget
251.596	1.983	D	0	960	TwoBack_Target
253.581	1.999	P	1	727	TwoBack_NonTarget
255.597	1.984	P	0	0	TwoBack_NonTarget
257.598	1.383	P	0	0	TwoBack_Target
258.998	1.784	M	0	0	TwoBack_NonTarget
260.799	1.783	R	1	541	TwoBack_NonTarget
262.599	1.984	H	1	773	TwoBack_NonTarget
264.6	1.783	R	1	732	TwoBack_Target
266.4	1.584	Z	1	684	TwoBack_NonTarget
268.001	1.783	D	1	635	TwoBack_NonTarget
269.801	1.484	G	1	603	TwoBack_NonTarget
271.302	1.683	D	0	766	TwoBack_Target
273.002	1.784	T	1	482	TwoBack_NonTarget
274.803	1.783	Y	1	665	TwoBack_NonTarget
276.603	1.584	T	1	960	TwoBack_Target
278.204	1.783	C	1	712	TwoBack_NonTarget
280.004	1.684	+	NA	0	TwoBack_fix
281.705	1.383	K	1	914	TwoBack_NonTarget
283.105	1.983	D	0	666	TwoBack_NonTarget
285.106	1.783	K	1	513	TwoBack_Target
286.906	1.584	B	1	681	TwoBack_NonTarget
288.507	1.783	V	0	0	TwoBack_NonTarget
290.307	1.984	Z	0	704	TwoBack_NonTarget
292.308	1.683	V	1	839	TwoBack_Target
294.008	1.384	Z	0	747	TwoBack_Target
295.409	1.683	V	1	786	TwoBack_Target
297.109	1.583	P	1	694	TwoBack_NonTarget
298.709	1.684	H	0	0	TwoBack_NonTarget
300.41	1.483	P	1	553	TwoBack_Target
301.91	1.484	T	1	645	TwoBack_NonTarget
303.411	1.583	P	1	488	TwoBack_Target
305.011	1.784	H	1	624	TwoBack_NonTarget
306.812	1.383	H	1	975	TwoBack_NonTarget
308.212	1.684	H	1	743	TwoBack_Target
309.913	1.683	C	1	858	TwoBack_NonTarget
311.613	1.384	D	1	662	TwoBack_NonTarget
313.014	1.583	J	1	725	TwoBack_NonTarget
314.614	1.684	P	1	845	TwoBack_NonTarget
316.315	1.683	J	0	0	TwoBack_Target
318.015	1.383	+	NA	0	TwoBack_fix
319.415	1.484	D	0	804	TwoBack_NonTarget
320.916	1.483	Q	1	535	TwoBack_NonTarget
322.416	1.884	D	1	779	TwoBack_Target
324.317	1.883	Q	1	758	TwoBack_Target
326.217	1.584	F	1	426	TwoBack_NonTarget
327.818	1.983	Z	0	0	TwoBack_NonTarget
329.818	1.784	T	1	601	TwoBack_NonTarget
331.619	1.883	Z	1	624	TwoBack_Target
333.519	1.984	M	1	812	TwoBack_NonTarget
335.52	1.984	D	1	771	TwoBack_NonTarget
337.521	1.383	J	1	538	TwoBack_NonTarget
338.921	1.583	D	1	538	TwoBack_Target
340.521	1.984	W	1	602	TwoBack_NonTarget
342.522	1.884	D	1	865	TwoBack_Target
344.423	1.383	+	NA	0	TwoBack_fix
351.808	1.5	+	NA	0	ZeroBack_fix
353.325	1.784	M	1	630	ZeroBack_NonTarget
355.126	1.683	X	1	388	ZeroBack_Target
356.826	1.984	N	1	584	ZeroBack_NonTarget
358.827	1.383	V	1	743	ZeroBack_NonTarget
360.227	1.684	F	1	583	ZeroBack_NonTarget
361.928	1.583	D	1	394	ZeroBack_NonTarget
363.528	1.984	X	1	394	ZeroBack_Target
365.529	1.683	W	1	561	ZeroBack_NonTarget
367.229	1.584	N	1	501	ZeroBack_NonTarget
368.83	1.983	X	1	484	ZeroBack_Target
370.83	1.784	Q	1	588	ZeroBack_NonTarget
372.631	1.883	Q	1	331	ZeroBack_NonTarget
374.531	1.784	X	1	431	ZeroBack_Target
376.332	1.583	L	1	470	ZeroBack_NonTarget
377.932	1.884	+	NA	0	ZeroBack_fix
379.833	1.583	F	1	617	ZeroBack_NonTarget
381.433	1.484	Z	1	713	ZeroBack_NonTarget
382.934	1.483	J	1	444	ZeroBack_NonTarget
384.434	1.884	H	1	408	ZeroBack_NonTarget
386.335	1.983	V	1	459	ZeroBack_NonTarget
388.335	1.784	F	1	387	ZeroBack_NonTarget
390.136	1.383	X	1	394	ZeroBack_Target
391.536	1.884	X	1	530	ZeroBack_Target
393.437	1.383	P	1	501	ZeroBack_NonTarget
394.837	1.384	B	1	493	ZeroBack_NonTarget
396.237	1.884	S	1	453	ZeroBack_NonTarget
398.138	1.683	X	1	488	ZeroBack_Target
399.839	1.483	X	1	467	ZeroBack_Target
401.339	1.383	D	1	399	ZeroBack_NonTarget
402.739	1.584	X	1	391	ZeroBack_Target
404.34	1.983	P	1	670	ZeroBack_NonTarget
406.34	1.484	X	0	278	ZeroBack_Target
407.841	1.983	J	1	441	ZeroBack_NonTarget
409.841	1.684	D	1	385	ZeroBack_NonTarget
411.542	1.583	B	1	612	ZeroBack_NonTarget
413.142	1.484	+	NA	0	ZeroBack_fix
414.643	1.683	X	1	575	ZeroBack_Target
416.343	1.384	L	1	347	ZeroBack_NonTarget
417.744	1.383	V	1	474	ZeroBack_NonTarget
419.144	1.884	C	1	442	ZeroBack_NonTarget
421.045	1.383	G	1	389	ZeroBack_NonTarget
422.445	1.883	M	1	365	ZeroBack_NonTarget
424.33	1.999	P	1	384	ZeroBack_NonTarget
426.346	1.484	X	1	344	ZeroBack_Target
427.847	1.683	D	1	354	ZeroBack_NonTarget
429.547	1.584	X	0	270	ZeroBack_Target
431.147	1.784	S	1	350	ZeroBack_NonTarget
432.948	1.383	+	NA	0	ZeroBack_fix
434.348	1.484	J	1	461	ZeroBack_NonTarget
435.849	1.683	X	1	504	ZeroBack_Target
437.549	1.484	B	1	516	ZeroBack_NonTarget
439.05	1.583	X	1	511	ZeroBack_Target
440.65	1.684	R	1	559	ZeroBack_NonTarget
442.351	1.983	R	1	666	ZeroBack_NonTarget
444.351	1.784	+	NA	0	ZeroBack_fix
446.152	1.683	H	1	537	ZeroBack_NonTarget
447.852	1.384	X	1	485	ZeroBack_Target
449.253	1.683	S	1	492	ZeroBack_NonTarget
450.953	1.584	B	1	584	ZeroBack_NonTarget
452.554	1.683	D	1	431	ZeroBack_NonTarget
454.254	1.584	X	1	531	ZeroBack_Target
455.855	1.683	N	1	450	ZeroBack_NonTarget
457.555	1.784	X	1	486	ZeroBack_Target
459.356	1.383	R	1	405	ZeroBack_NonTarget
460.756	1.983	S	1	485	ZeroBack_NonTarget
462.757	1.583	X	1	355	ZeroBack_Target
464.357	1.884	J	1	436	ZeroBack_NonTarget
466.258	1.583	X	1	503	ZeroBack_Target
467.858	1.884	X	1	511	ZeroBack_Target
469.759	1.983	F	1	434	ZeroBack_NonTarget
471.759	1.384	+	NA	0	ZeroBack_fix
473.16	1.783	T	1	737	ZeroBack_NonTarget
474.96	1.484	X	1	529	ZeroBack_Target
476.461	1.783	B	1	612	ZeroBack_NonTarget
478.261	1.883	F	1	548	ZeroBack_NonTarget
480.162	1.483	F	1	679	ZeroBack_NonTarget
481.662	1.783	B	1	763	ZeroBack_NonTarget
483.463	1.583	K	1	530	ZeroBack_NonTarget
485.063	1.783	Q	1	370	ZeroBack_NonTarget
486.863	1.584	T	1	394	ZeroBack_NonTarget
488.464	1.683	X	1	457	ZeroBack_Target
490.164	1.884	X	1	445	ZeroBack_Target
492.065	1.883	W	1	504	ZeroBack_NonTarget
493.966	1.983	+	NA	0	ZeroBack_fix
495.966	1.384	X	1	619	ZeroBack_Target
497.367	1.983	Z	1	466	ZeroBack_NonTarget
499.367	1.784	P	1	474	ZeroBack_NonTarget
501.168	1.483	S	1	513	ZeroBack_NonTarget
502.668	1.684	X	1	525	ZeroBack_Target
504.369	1.883	X	1	632	ZeroBack_Target
506.269	1.984	V	1	443	ZeroBack_NonTarget
508.27	1.783	D	1	474	ZeroBack_NonTarget
510.07	1.684	X	1	562	ZeroBack_Target
511.771	1.783	X	1	549	ZeroBack_Target
513.571	1.584	G	1	509	ZeroBack_NonTarget
515.172	1.783	X	1	524	ZeroBack_Target
516.972	1.484	+	NA	0	ZeroBack_fix
