onset	duration	value	accuracy	response_time	trial_type
6.502	1.8	+	NA	0	ZeroBack_fix
8.319	1.384	M	1	865	ZeroBack_NonTarget
9.72	1.783	X	1	817	ZeroBack_Target
11.52	1.484	N	1	800	ZeroBack_NonTarget
13.02	1.684	V	1	724	ZeroBack_NonTarget
14.721	1.783	F	1	652	ZeroBack_NonTarget
16.521	1.484	D	1	681	ZeroBack_NonTarget
18.022	1.683	X	1	573	ZeroBack_Target
19.722	1.384	W	1	570	ZeroBack_NonTarget
21.123	1.583	N	1	722	ZeroBack_NonTarget
22.723	1.984	X	1	654	ZeroBack_Target
24.724	1.983	Q	1	473	ZeroBack_NonTarget
26.724	1.684	Q	1	582	ZeroBack_NonTarget
28.425	1.683	X	1	512	ZeroBack_Target
30.125	1.384	L	1	476	ZeroBack_NonTarget
31.526	1.983	+	NA	0	ZeroBack_fix
33.526	1.884	F	1	864	ZeroBack_NonTarget
35.427	1.383	Z	1	600	ZeroBack_NonTarget
36.827	1.584	J	1	438	ZeroBack_NonTarget
38.428	1.383	H	1	590	ZeroBack_NonTarget
39.828	1.984	V	1	452	ZeroBack_NonTarget
41.829	1.483	F	1	538	ZeroBack_NonTarget
43.329	1.484	X	1	656	ZeroBack_Target
44.83	1.583	X	1	664	ZeroBack_Target
46.43	1.884	P	1	655	ZeroBack_NonTarget
48.331	1.383	B	1	638	ZeroBack_NonTarget
49.731	1.683	S	1	701	ZeroBack_NonTarget
51.431	1.784	X	1	558	ZeroBack_Target
53.232	1.483	X	1	559	ZeroBack_Target
54.732	1.984	D	1	453	ZeroBack_NonTarget
56.733	1.483	X	1	603	ZeroBack_Target
58.233	1.384	P	1	577	ZeroBack_NonTarget
59.634	1.583	X	1	553	ZeroBack_Target
61.234	1.384	J	1	546	ZeroBack_NonTarget
62.635	1.983	D	1	594	ZeroBack_NonTarget
64.635	1.684	B	1	612	ZeroBack_NonTarget
66.336	1.883	+	NA	0	ZeroBack_fix
68.236	1.884	X	1	553	ZeroBack_Target
70.137	1.883	L	1	569	ZeroBack_NonTarget
72.037	1.784	V	1	820	ZeroBack_NonTarget
73.838	1.883	C	1	468	ZeroBack_NonTarget
75.738	1.584	G	1	457	ZeroBack_NonTarget
77.339	1.383	M	1	407	ZeroBack_NonTarget
78.739	1.684	P	1	495	ZeroBack_NonTarget
80.44	1.583	X	1	697	ZeroBack_Target
82.04	1.384	D	1	573	ZeroBack_NonTarget
83.441	1.683	X	1	496	ZeroBack_Target
85.141	1.984	S	1	496	ZeroBack_NonTarget
87.142	1.783	+	NA	0	ZeroBack_fix
88.942	1.384	J	1	835	ZeroBack_NonTarget
90.343	1.883	X	1	661	ZeroBack_Target
92.243	1.984	B	1	661	ZeroBack_NonTarget
94.244	1.783	X	1	604	ZeroBack_Target
96.044	1.684	R	1	532	ZeroBack_NonTarget
97.745	1.683	R	1	531	ZeroBack_NonTarget
99.445	1.784	+	NA	0	ZeroBack_fix
101.246	1.783	H	1	694	ZeroBack_NonTarget
103.046	1.984	X	1	557	ZeroBack_Target
105.047	1.583	S	1	485	ZeroBack_NonTarget
106.647	1.584	B	1	649	ZeroBack_NonTarget
108.248	1.783	D	1	456	ZeroBack_NonTarget
110.048	1.584	X	1	641	ZeroBack_Target
111.649	1.483	N	1	548	ZeroBack_NonTarget
113.149	1.984	X	1	598	ZeroBack_Target
115.15	1.683	R	1	528	ZeroBack_NonTarget
116.85	1.784	S	1	461	ZeroBack_NonTarget
118.651	1.683	X	1	619	ZeroBack_Target
120.351	1.584	J	1	467	ZeroBack_NonTarget
121.952	1.883	X	1	541	ZeroBack_Target
123.852	1.984	X	1	602	ZeroBack_Target
125.853	1.783	F	1	608	ZeroBack_NonTarget
127.653	1.684	+	NA	0	ZeroBack_fix
129.354	1.883	T	1	582	ZeroBack_NonTarget
131.254	1.884	X	1	622	ZeroBack_Target
133.155	1.683	B	1	572	ZeroBack_NonTarget
134.855	1.584	F	1	492	ZeroBack_NonTarget
136.456	1.683	F	1	615	ZeroBack_NonTarget
138.156	1.584	B	1	487	ZeroBack_NonTarget
139.757	1.383	K	1	741	ZeroBack_NonTarget
141.157	1.484	Q	1	527	ZeroBack_NonTarget
142.658	1.883	T	1	388	ZeroBack_NonTarget
144.558	1.584	X	1	456	ZeroBack_Target
146.159	1.883	X	1	381	ZeroBack_Target
148.059	1.984	W	1	574	ZeroBack_NonTarget
150.06	1.783	+	NA	0	ZeroBack_fix
151.86	1.784	X	1	726	ZeroBack_Target
153.661	1.483	Z	1	528	ZeroBack_NonTarget
155.161	1.584	P	1	562	ZeroBack_NonTarget
156.762	1.483	S	1	481	ZeroBack_NonTarget
158.262	1.784	X	1	484	ZeroBack_Target
160.063	1.483	X	1	486	ZeroBack_Target
161.563	1.684	V	1	629	ZeroBack_NonTarget
163.264	1.983	D	1	546	ZeroBack_NonTarget
165.264	1.484	X	1	616	ZeroBack_Target
166.765	1.883	X	1	514	ZeroBack_Target
168.665	1.584	G	1	556	ZeroBack_NonTarget
170.266	1.483	X	1	606	ZeroBack_Target
171.766	1.383	+	NA	0	ZeroBack_fix
179.151	1.401	+	NA	0	OneBack_fix
180.569	1.583	Q	NA	0	OneBack_na
182.169	1.883	C	0	0	OneBack_NonTarget
184.07	1.483	C	0	536	OneBack_Target
185.57	1.783	F	1	1106	OneBack_NonTarget
187.37	1.884	T	1	778	OneBack_NonTarget
189.271	1.483	W	1	872	OneBack_NonTarget
190.771	1.784	H	1	1148	OneBack_NonTarget
192.572	1.783	H	1	798	OneBack_Target
194.372	1.684	H	1	748	OneBack_Target
196.073	1.383	R	1	921	OneBack_NonTarget
197.473	1.884	+	NA	0	OneBack_fix
199.374	1.783	Q	1	1181	OneBack_NonTarget
201.174	1.384	P	1	1034	OneBack_NonTarget
202.575	1.883	P	1	875	OneBack_Target
204.475	1.784	K	1	907	OneBack_NonTarget
206.276	1.983	H	1	1069	OneBack_NonTarget
208.276	1.884	H	1	1027	OneBack_Target
210.177	1.583	+	NA	0	OneBack_fix
211.777	1.884	K	0	1017	OneBack_NonTarget
213.678	1.983	K	1	946	OneBack_Target
215.679	1.983	H	0	0	OneBack_NonTarget
217.679	1.484	W	1	1160	OneBack_NonTarget
219.18	1.583	T	0	0	OneBack_NonTarget
220.78	1.584	W	1	220	OneBack_NonTarget
222.381	1.483	W	1	680	OneBack_Target
223.881	1.583	S	1	738	OneBack_NonTarget
225.481	1.984	T	1	993	OneBack_NonTarget
227.482	1.683	+	NA	0	OneBack_fix
229.182	1.484	M	1	979	OneBack_NonTarget
230.683	1.583	M	1	792	OneBack_Target
232.283	1.684	P	1	1031	OneBack_NonTarget
233.984	1.683	P	1	911	OneBack_Target
235.684	1.684	G	1	736	OneBack_NonTarget
237.385	1.683	Z	1	708	OneBack_NonTarget
239.085	1.984	V	1	824	OneBack_NonTarget
241.086	1.983	V	1	656	OneBack_Target
243.086	1.384	N	1	868	OneBack_NonTarget
244.487	1.683	B	0	0	OneBack_NonTarget
246.187	1.884	T	1	1282	OneBack_NonTarget
248.088	1.783	T	1	599	OneBack_Target
249.888	1.984	D	1	592	OneBack_NonTarget
251.889	1.683	V	0	1278	OneBack_NonTarget
253.589	1.884	B	0	1353	OneBack_NonTarget
255.49	1.583	B	1	1352	OneBack_Target
257.09	1.684	B	1	1372	OneBack_Target
258.791	1.983	R	1	639	OneBack_NonTarget
260.792	1.383	D	1	676	OneBack_NonTarget
262.192	1.583	K	1	933	OneBack_NonTarget
263.792	1.384	P	1	1004	OneBack_NonTarget
265.193	1.783	P	1	971	OneBack_Target
266.993	1.784	D	0	0	OneBack_NonTarget
268.794	1.983	D	1	880	OneBack_Target
270.794	1.784	D	1	805	OneBack_Target
272.595	1.883	D	1	713	OneBack_Target
274.495	1.884	D	1	613	OneBack_Target
276.396	1.583	F	1	897	OneBack_NonTarget
277.996	1.484	F	1	1254	OneBack_Target
279.497	1.583	N	0	0	OneBack_NonTarget
281.097	1.384	+	NA	0	OneBack_fix
282.498	1.483	J	0	0	OneBack_NonTarget
283.998	1.484	Z	1	334	OneBack_NonTarget
285.499	1.483	S	1	887	OneBack_NonTarget
286.999	1.783	S	1	472	OneBack_Target
288.8	1.383	F	1	1176	OneBack_NonTarget
290.2	1.783	F	0	0	OneBack_Target
292	1.684	N	1	1020	OneBack_NonTarget
293.701	1.583	C	1	1112	OneBack_NonTarget
295.301	1.484	Z	1	938	OneBack_NonTarget
296.802	1.383	Z	1	720	OneBack_Target
298.202	1.684	K	1	630	OneBack_NonTarget
299.903	1.783	+	NA	0	OneBack_fix
301.703	1.484	K	1	792	OneBack_Target
303.204	1.683	P	1	835	OneBack_NonTarget
304.904	1.384	G	1	685	OneBack_NonTarget
306.305	1.783	R	1	847	OneBack_NonTarget
308.105	1.784	R	1	603	OneBack_Target
309.906	1.383	L	1	583	OneBack_NonTarget
311.306	1.383	M	1	1022	OneBack_NonTarget
312.706	1.684	M	1	664	OneBack_Target
314.407	1.883	P	1	731	OneBack_NonTarget
316.307	1.684	H	1	554	OneBack_NonTarget
318.008	1.783	R	1	743	OneBack_NonTarget
319.808	1.584	J	1	807	OneBack_NonTarget
321.409	1.383	R	0	765	OneBack_NonTarget
322.809	1.984	R	1	703	OneBack_Target
324.81	1.883	K	1	1097	OneBack_NonTarget
326.71	1.984	H	1	746	OneBack_NonTarget
328.711	1.683	H	1	697	OneBack_Target
330.411	1.484	W	1	697	OneBack_NonTarget
331.912	1.583	W	1	524	OneBack_Target
333.512	1.484	K	1	831	OneBack_NonTarget
335.013	1.683	T	1	880	OneBack_NonTarget
336.713	1.584	T	1	583	OneBack_Target
338.314	1.883	T	1	657	OneBack_Target
340.214	1.984	F	0	779	OneBack_NonTarget
342.215	1.983	V	1	560	OneBack_NonTarget
344.215	1.584	+	NA	0	OneBack_fix
351.801	1.4	+	NA	0	TwoBack_fix
353.218	1.983	V	NA	0	TwoBack_na
355.219	1.483	P	NA	0	TwoBack_na
356.719	1.383	F	1	688	TwoBack_NonTarget
358.119	1.384	P	1	1284	TwoBack_Target
359.52	1.783	H	1	1340	TwoBack_NonTarget
361.32	1.784	V	0	1182	TwoBack_NonTarget
363.121	1.683	N	1	1332	TwoBack_NonTarget
364.821	1.484	V	1	915	TwoBack_Target
366.322	1.583	C	1	740	TwoBack_NonTarget
367.922	1.784	D	1	788	TwoBack_NonTarget
369.723	1.483	N	1	738	TwoBack_NonTarget
371.223	1.384	D	1	844	TwoBack_Target
372.624	1.383	K	1	643	TwoBack_NonTarget
374.024	1.783	P	1	874	TwoBack_NonTarget
375.824	1.584	+	NA	0	TwoBack_fix
377.425	1.683	K	1	1279	TwoBack_Target
379.125	1.884	F	1	940	TwoBack_NonTarget
381.026	1.783	Q	1	988	TwoBack_NonTarget
382.827	1.983	F	1	709	TwoBack_Target
384.827	1.884	S	1	626	TwoBack_NonTarget
386.728	1.983	T	1	771	TwoBack_NonTarget
388.728	1.684	D	1	832	TwoBack_NonTarget
390.429	1.383	T	1	688	TwoBack_Target
391.829	1.984	C	1	779	TwoBack_NonTarget
393.83	1.383	M	1	654	TwoBack_NonTarget
395.23	1.684	C	1	572	TwoBack_Target
396.931	1.683	K	1	899	TwoBack_NonTarget
398.631	1.484	S	1	721	TwoBack_NonTarget
400.131	1.784	P	0	548	TwoBack_NonTarget
401.932	1.683	S	1	888	TwoBack_Target
403.632	1.684	W	1	636	TwoBack_NonTarget
405.333	1.683	S	1	1051	TwoBack_Target
407.033	1.884	+	NA	0	TwoBack_fix
408.934	1.583	B	1	617	TwoBack_NonTarget
410.534	1.784	Z	1	632	TwoBack_NonTarget
412.335	1.383	B	1	601	TwoBack_Target
413.735	1.884	Z	1	1094	TwoBack_Target
415.636	1.383	B	0	0	TwoBack_Target
417.036	1.684	K	1	282	TwoBack_NonTarget
418.737	1.983	L	1	717	TwoBack_NonTarget
420.737	1.484	D	1	659	TwoBack_NonTarget
422.238	1.583	W	1	909	TwoBack_NonTarget
423.838	1.884	D	1	626	TwoBack_Target
425.739	1.883	P	1	879	TwoBack_NonTarget
427.639	1.384	P	0	682	TwoBack_NonTarget
429.04	1.583	P	1	695	TwoBack_Target
430.64	1.884	M	1	730	TwoBack_NonTarget
432.541	1.783	R	1	892	TwoBack_NonTarget
434.341	1.584	H	1	795	TwoBack_NonTarget
435.942	1.983	R	1	666	TwoBack_Target
437.942	1.684	Z	1	748	TwoBack_NonTarget
439.643	1.783	D	1	922	TwoBack_NonTarget
441.443	1.884	G	1	524	TwoBack_NonTarget
443.344	1.783	D	1	749	TwoBack_Target
445.144	1.584	T	1	660	TwoBack_NonTarget
446.745	1.683	Y	1	602	TwoBack_NonTarget
448.445	1.384	T	1	426	TwoBack_Target
449.846	1.883	C	1	797	TwoBack_NonTarget
451.746	1.584	+	NA	0	TwoBack_fix
453.347	1.483	K	1	714	TwoBack_NonTarget
454.847	1.384	D	1	1105	TwoBack_NonTarget
456.248	1.583	K	0	803	TwoBack_Target
457.848	1.483	B	1	761	TwoBack_NonTarget
459.348	1.784	V	1	707	TwoBack_NonTarget
461.149	1.683	Z	1	724	TwoBack_NonTarget
462.849	1.484	V	1	582	TwoBack_Target
464.35	1.883	Z	1	916	TwoBack_Target
466.25	1.484	V	0	1218	TwoBack_Target
467.751	1.483	P	1	1240	TwoBack_NonTarget
469.251	1.984	H	0	0	TwoBack_NonTarget
471.252	1.683	P	0	331	TwoBack_Target
472.952	1.484	T	1	822	TwoBack_NonTarget
474.453	1.983	P	1	607	TwoBack_Target
476.453	1.984	H	0	1094	TwoBack_NonTarget
478.454	1.783	H	0	743	TwoBack_NonTarget
480.254	1.784	H	1	576	TwoBack_Target
482.055	1.683	C	1	817	TwoBack_NonTarget
483.755	1.984	D	1	776	TwoBack_NonTarget
485.756	1.483	J	1	667	TwoBack_NonTarget
487.256	1.584	P	1	682	TwoBack_NonTarget
488.857	1.583	J	1	1003	TwoBack_Target
490.457	1.784	+	NA	0	TwoBack_fix
492.258	1.783	D	0	791	TwoBack_NonTarget
494.058	1.584	Q	1	573	TwoBack_NonTarget
495.659	1.983	D	0	749	TwoBack_Target
497.659	1.584	Q	1	472	TwoBack_Target
499.26	1.983	F	1	620	TwoBack_NonTarget
501.26	1.884	Z	1	747	TwoBack_NonTarget
503.161	1.583	T	1	708	TwoBack_NonTarget
504.761	1.584	Z	1	1097	TwoBack_Target
506.362	1.883	M	1	1107	TwoBack_NonTarget
508.262	1.884	D	1	1267	TwoBack_NonTarget
510.163	1.383	J	1	1135	TwoBack_NonTarget
511.563	1.484	D	1	865	TwoBack_Target
513.064	1.683	W	1	699	TwoBack_NonTarget
514.764	1.684	D	0	657	TwoBack_Target
516.465	1.983	+	NA	0	TwoBack_fix
