onset	duration	value	accuracy	response_time	trial_type
4.003	1.796	X	1	639	first_go
5.903	1.196	X	1	509	first_go
7.204	1.595	N	1	0	first_nogo
8.904	1.595	X	1	518	first_go
10.605	1.294	G	1	0	first_nogo
12.005	1.394	X	1	499	first_go
13.505	1.494	X	1	521	first_go
15.106	1.393	L	1	0	first_nogo
16.606	1.493	X	1	506	first_go
18.207	1.392	+	NA	0	first_fix
19.707	1.792	X	1	585	first_go
21.608	1.691	X	1	517	first_go
23.408	1.191	X	1	501	first_go
24.709	1.79	X	1	661	first_go
26.609	1.49	X	1	667	first_go
28.21	1.289	X	1	496	first_go
29.61	1.689	X	1	465	first_go
31.411	1.388	X	1	524	first_go
32.911	1.788	X	1	424	first_go
34.812	1.387	R	1	0	first_nogo
36.312	1.387	R	1	0	first_nogo
37.812	1.687	+	NA	0	first_fix
39.598	1.801	X	1	531	first_go
41.498	1.201	X	1	414	first_go
42.798	1.501	X	1	462	first_go
44.398	1.601	P	1	0	first_nogo
46.098	1.701	+	NA	0	first_fix
47.899	1.3	X	1	469	first_go
49.299	1.6	X	1	539	first_go
51	1.799	X	1	416	first_go
52.9	1.599	X	1	435	first_go
54.601	1.198	X	1	424	first_go
55.901	1.498	X	1	505	first_go
57.501	1.398	X	1	432	first_go
59.002	1.797	X	1	405	first_go
60.902	1.197	X	1	535	first_go
62.203	1.696	X	1	420	first_go
64.003	1.596	X	1	427	first_go
65.704	1.495	J	1	0	first_nogo
67.304	1.495	X	1	470	first_go
68.905	1.694	X	1	452	first_go
70.705	1.294	X	1	531	first_go
72.106	1.493	X	1	484	first_go
73.706	1.793	X	1	460	first_go
75.607	1.492	X	1	461	first_go
77.207	1.292	X	1	409	first_go
78.607	1.192	X	1	407	first_go
79.908	1.291	X	1	386	first_go
81.308	1.591	X	1	417	first_go
83.009	1.69	X	1	479	first_go
84.809	1.19	X	1	389	first_go
86.11	1.289	X	1	366	first_go
87.51	1.289	L	1	0	first_nogo
88.91	1.689	X	1	412	first_go
90.711	1.788	+	NA	0	first_fix
92.611	1.288	X	1	571	first_go
94.012	1.187	F	1	0	first_nogo
95.312	1.487	+	NA	0	first_fix
96.913	1.286	X	1	434	first_go
98.298	1.401	X	1	622	first_go
99.798	1.801	X	1	566	first_go
101.698	1.601	X	1	487	first_go
103.398	1.301	X	1	498	first_go
104.798	1.401	X	1	503	first_go
106.299	1.6	P	1	0	first_nogo
107.999	1.5	X	1	463	first_go
109.6	1.699	X	1	405	first_go
111.4	1.399	S	1	0	first_nogo
112.901	1.298	O	1	0	first_nogo
114.301	1.198	X	1	586	first_go
115.601	1.198	D	1	0	first_nogo
116.902	1.197	X	1	522	first_go
118.202	1.197	X	1	482	first_go
119.502	1.597	X	1	470	first_go
121.203	1.696	F	1	0	first_nogo
123.003	1.296	+	NA	0	first_fix
124.404	1.495	I	1	0	first_nogo
126.004	1.595	X	1	392	first_go
127.705	1.794	X	1	466	first_go
129.605	1.494	X	1	499	first_go
131.206	1.793	X	1	472	first_go
133.106	1.793	U	1	0	first_nogo
135.007	1.192	X	1	589	first_go
136.307	1.692	X	1	699	first_go
138.108	1.191	X	1	510	first_go
139.408	1.691	+	NA	0	first_fix
141.209	1.49	X	1	595	first_go
142.809	1.59	X	1	436	first_go
144.51	1.189	H	1	0	first_nogo
145.81	1.789	X	1	511	first_go
147.711	1.688	D	1	0	first_nogo
149.511	1.788	X	1	494	first_go
151.412	1.287	X	1	474	first_go
152.812	1.387	A	1	0	first_nogo
154.312	1.287	X	1	489	first_go
155.698	1.701	B	1	0	first_nogo
157.498	1.301	M	1	0	first_nogo
158.898	1.601	X	0	0	first_go
160.598	1.401	X	1	715	first_go
162.098	1.401	+	NA	0	first_fix
163.598	1.401	X	1	633	first_go
165.099	1.5	+	NA	0	first_fix
166.699	1.6	X	1	478	first_go
168.4	1.399	X	1	464	first_go
169.9	1.699	X	1	582	first_go
171.701	1.498	O	1	0	first_nogo
173.301	1.398	X	1	543	first_go
174.802	1.497	X	1	445	first_go
176.402	1.697	X	1	442	first_go
178.203	1.596	X	1	449	first_go
179.903	1.196	X	1	399	first_go
181.203	1.396	+	NA	0	first_fix
182.704	1.495	E	1	0	first_nogo
184.304	1.795	T	1	0	first_nogo
186.205	1.294	X	1	499	first_go
187.605	1.194	X	1	484	first_go
188.906	1.293	X	1	452	first_go
190.306	1.493	X	1	471	first_go
191.907	1.492	X	1	390	first_go
193.507	1.392	X	1	480	first_go
195.007	1.692	J	1	0	first_nogo
196.808	1.191	X	1	515	first_go
198.108	1.791	X	1	623	first_go
200.009	1.69	X	1	632	first_go
201.809	1.49	X	1	409	first_go
203.41	1.289	X	1	792	first_go
204.81	1.489	Q	1	0	first_nogo
206.411	1.688	X	1	504	first_go
208.211	1.788	X	1	400	first_go
210.112	1.787	X	1	494	first_go
212.012	1.187	X	1	475	first_go
213.313	1.586	X	1	458	first_go
214.998	1.801	X	1	416	first_go
216.898	1.501	X	1	439	first_go
218.498	1.801	X	1	491	first_go
220.398	1.301	Q	1	0	first_nogo
221.798	1.501	X	1	417	first_go
223.399	1.3	X	1	441	first_go
224.799	1.5	X	1	362	first_go
226.4	1.399	U	1	0	first_nogo
227.9	1.299	X	1	426	first_go
229.301	1.798	X	1	408	first_go
231.201	1.198	+	NA	0	first_fix
232.502	1.697	X	1	493	first_go
234.302	1.497	X	1	428	first_go
235.902	1.697	X	1	450	first_go
237.703	1.596	I	1	0	first_nogo
239.403	1.596	X	1	441	first_go
241.104	1.295	M	1	0	first_nogo
242.504	1.395	T	1	0	first_nogo
244.005	1.694	X	1	495	first_go
245.805	1.794	S	1	0	first_nogo
247.706	1.393	N	1	0	first_nogo
249.206	1.693	C	1	0	first_nogo
251.007	1.692	X	1	553	first_go
252.807	1.792	X	1	441	first_go
254.708	1.691	+	NA	0	first_fix
256.508	1.591	X	1	561	first_go
258.209	1.19	H	1	0	first_nogo
259.509	1.29	E	1	0	first_nogo
260.91	1.689	X	1	434	first_go
262.71	1.589	X	1	495	first_go
264.411	1.788	X	1	482	first_go
266.311	1.788	X	1	492	first_go
268.212	1.487	B	1	0	first_nogo
269.812	1.587	X	1	432	first_go
271.513	1.186	C	1	0	first_nogo
272.798	1.401	X	1	495	first_go
274.298	1.201	A	1	0	first_nogo
275.598	1.201	X	1	459	first_go
276.898	1.401	X	1	444	first_go
278.398	1.301	G	1	0	first_nogo
279.798	1.401	O	1	0	second_nogo
281.299	1.3	P	1	0	second_nogo
282.699	1.5	O	1	0	second_nogo
284.3	1.599	F	1	0	second_nogo
286	1.699	X	1	502	second_go
287.801	1.398	+	NA	0	second_fix
289.301	1.198	O	1	0	second_nogo
290.601	1.498	S	1	0	second_nogo
292.202	1.497	T	1	0	second_nogo
293.802	1.197	P	1	0	second_nogo
295.103	1.496	T	1	0	second_nogo
296.703	1.596	B	1	0	second_nogo
298.404	1.595	L	1	0	second_nogo
300.104	1.395	I	1	0	second_nogo
301.605	1.594	E	1	0	second_nogo
303.305	1.194	B	1	0	second_nogo
304.606	1.493	I	1	0	second_nogo
306.206	1.293	X	1	487	second_go
307.606	1.393	R	1	0	second_nogo
309.107	1.792	R	1	0	second_nogo
311.007	1.592	C	1	0	second_nogo
312.708	1.791	U	1	0	second_nogo
314.608	1.791	J	1	0	second_nogo
316.509	1.49	U	1	0	second_nogo
318.109	1.19	E	1	0	second_nogo
319.41	1.189	N	1	0	second_nogo
320.71	1.289	B	1	0	second_nogo
322.111	1.388	D	1	0	second_nogo
323.611	1.488	S	1	0	second_nogo
325.211	1.288	X	1	535	second_go
326.612	1.587	I	1	0	second_nogo
328.312	1.387	X	1	594	second_go
329.813	1.386	F	1	0	second_nogo
331.298	1.701	Q	1	0	second_nogo
333.098	1.301	X	1	492	second_go
334.498	1.201	X	1	507	second_go
335.798	1.501	C	1	0	second_nogo
337.398	1.501	M	1	0	second_nogo
338.999	1.7	Q	1	0	second_nogo
340.799	1.3	X	1	400	second_go
342.2	1.799	G	1	0	second_nogo
344.1	1.599	N	1	0	second_nogo
345.801	1.798	A	1	0	second_nogo
347.701	1.498	S	1	0	second_nogo
349.302	1.397	X	1	486	second_go
350.802	1.697	X	1	567	second_go
352.603	1.796	X	1	453	second_go
354.503	1.496	X	1	436	second_go
356.104	1.595	J	1	0	second_nogo
357.804	1.795	Q	1	0	second_nogo
359.705	1.394	X	1	575	second_go
361.205	1.694	U	1	0	second_nogo
363.006	1.793	X	1	536	second_go
364.906	1.393	X	1	501	second_go
366.407	1.592	H	1	0	second_nogo
368.107	1.792	+	NA	0	second_fix
370.008	1.691	G	1	0	second_nogo
371.808	1.591	X	1	441	second_go
373.509	1.59	N	1	0	second_nogo
375.209	1.59	P	1	0	second_nogo
376.91	1.589	X	1	550	second_go
378.61	1.489	A	1	0	second_nogo
380.21	1.589	H	1	0	second_nogo
381.911	1.588	E	1	0	second_nogo
383.611	1.188	+	NA	0	second_fix
384.912	1.187	+	NA	0	second_fix
386.212	1.787	J	1	0	second_nogo
388.113	1.186	M	1	0	second_nogo
389.398	1.301	H	1	0	second_nogo
390.798	1.401	X	1	455	second_go
392.298	1.401	R	1	0	second_nogo
393.798	1.701	A	1	0	second_nogo
395.598	1.701	X	1	477	second_go
397.399	1.5	M	1	0	second_nogo
398.999	1.7	L	1	0	second_nogo
400.8	1.399	+	NA	0	second_fix
402.3	1.299	X	1	539	second_go
403.701	1.298	L	1	0	second_nogo
405.101	1.198	D	1	0	second_nogo
406.401	1.298	X	1	555	second_go
407.802	1.197	+	NA	0	second_fix
409.102	1.697	T	1	0	second_nogo
410.903	1.196	F	1	0	second_nogo
412.203	1.596	D	1	0	second_nogo
413.903	1.296	C	1	0	second_nogo
415.304	1.395	G	1	0	second_nogo
