onset	duration	value	accuracy	response_time	trial_type
6.507	1.7	+	NA	0	OneBack_fix
8.224	1.883	Q	NA	0	OneBack_na
10.124	1.584	C	0	0	OneBack_NonTarget
11.725	1.383	C	0	0	OneBack_Target
13.125	1.784	F	0	30	OneBack_NonTarget
14.926	1.983	T	0	0	OneBack_NonTarget
16.926	1.584	W	1	860	OneBack_NonTarget
18.527	1.883	H	1	476	OneBack_NonTarget
20.427	1.384	H	0	526	OneBack_Target
21.828	1.683	H	1	690	OneBack_Target
23.528	1.484	R	1	648	OneBack_NonTarget
25.028	1.584	+	NA	0	OneBack_fix
26.629	1.683	Q	1	1036	OneBack_NonTarget
28.329	1.384	P	1	570	OneBack_NonTarget
29.73	1.483	P	0	639	OneBack_Target
31.23	1.984	K	1	885	OneBack_NonTarget
33.231	1.383	H	1	971	OneBack_NonTarget
34.631	1.684	H	1	391	OneBack_Target
36.332	1.683	+	NA	0	OneBack_fix
38.032	1.684	K	1	801	OneBack_NonTarget
39.733	1.483	K	1	882	OneBack_Target
41.233	1.984	H	1	1150	OneBack_NonTarget
43.234	1.983	W	1	571	OneBack_NonTarget
45.234	1.984	T	1	610	OneBack_NonTarget
47.235	1.583	W	0	806	OneBack_NonTarget
48.835	1.584	W	1	925	OneBack_Target
50.436	1.383	S	1	434	OneBack_NonTarget
51.836	1.584	T	1	844	OneBack_NonTarget
53.437	1.883	+	NA	0	OneBack_fix
55.337	1.684	M	1	767	OneBack_NonTarget
57.038	1.783	M	1	783	OneBack_Target
58.838	1.584	P	1	882	OneBack_NonTarget
60.439	1.883	P	1	407	OneBack_Target
62.339	1.984	G	1	442	OneBack_NonTarget
64.34	1.783	Z	1	684	OneBack_NonTarget
66.14	1.484	V	1	690	OneBack_NonTarget
67.641	1.783	V	1	454	OneBack_Target
69.441	1.884	N	1	506	OneBack_NonTarget
71.342	1.583	B	1	474	OneBack_NonTarget
72.942	1.584	T	1	457	OneBack_NonTarget
74.543	1.683	T	1	376	OneBack_Target
76.243	1.584	D	1	577	OneBack_NonTarget
77.844	1.683	V	1	453	OneBack_NonTarget
79.544	1.784	B	1	553	OneBack_NonTarget
81.345	1.883	B	0	490	OneBack_Target
83.245	1.384	B	1	714	OneBack_Target
84.646	1.683	R	1	604	OneBack_NonTarget
86.346	1.584	D	1	1052	OneBack_NonTarget
87.947	1.383	K	1	841	OneBack_NonTarget
89.347	1.883	P	1	745	OneBack_NonTarget
91.247	1.684	P	1	638	OneBack_Target
92.948	1.683	D	1	555	OneBack_NonTarget
94.648	1.384	D	1	366	OneBack_Target
96.049	1.383	D	1	603	OneBack_Target
97.449	1.984	D	1	431	OneBack_Target
99.45	1.883	D	1	486	OneBack_Target
101.35	1.884	F	1	503	OneBack_NonTarget
103.251	1.783	F	1	792	OneBack_Target
105.051	1.584	N	1	508	OneBack_NonTarget
106.652	1.883	+	NA	0	OneBack_fix
108.552	1.784	J	1	965	OneBack_NonTarget
110.353	1.483	Z	1	610	OneBack_NonTarget
111.853	1.484	S	1	498	OneBack_NonTarget
113.354	1.483	S	1	558	OneBack_Target
114.854	1.384	F	1	575	OneBack_NonTarget
116.255	1.783	F	1	706	OneBack_Target
118.055	1.984	N	1	638	OneBack_NonTarget
120.056	1.383	C	1	470	OneBack_NonTarget
121.456	1.384	Z	1	654	OneBack_NonTarget
122.857	1.483	Z	1	414	OneBack_Target
124.357	1.483	K	1	648	OneBack_NonTarget
125.857	1.684	+	NA	0	OneBack_fix
127.558	1.383	K	1	719	OneBack_Target
128.958	1.484	P	1	481	OneBack_NonTarget
130.459	1.883	G	1	433	OneBack_NonTarget
132.359	1.484	R	1	544	OneBack_NonTarget
133.86	1.483	R	1	575	OneBack_Target
135.36	1.584	L	1	481	OneBack_NonTarget
136.961	1.783	M	1	603	OneBack_NonTarget
138.761	1.784	M	1	377	OneBack_Target
140.562	1.783	P	1	443	OneBack_NonTarget
142.362	1.984	H	1	462	OneBack_NonTarget
144.363	1.783	R	1	444	OneBack_NonTarget
146.163	1.984	J	1	567	OneBack_NonTarget
148.164	1.883	R	1	456	OneBack_NonTarget
150.064	1.984	R	1	726	OneBack_Target
152.065	1.583	K	1	433	OneBack_NonTarget
153.665	1.684	H	1	659	OneBack_NonTarget
155.366	1.883	H	1	435	OneBack_Target
157.266	1.784	W	1	474	OneBack_NonTarget
159.067	1.583	W	1	650	OneBack_Target
160.667	1.784	K	1	509	OneBack_NonTarget
162.468	1.483	T	1	511	OneBack_NonTarget
163.968	1.784	T	1	419	OneBack_Target
165.769	1.983	T	1	402	OneBack_Target
167.769	1.684	F	1	442	OneBack_NonTarget
169.47	1.983	V	1	465	OneBack_NonTarget
171.47	1.684	+	NA	0	OneBack_fix
179.156	1.6	+	NA	0	TwoBack_fix
180.773	1.884	V	NA	548	TwoBack_na
182.674	1.683	P	NA	487	TwoBack_na
184.374	1.884	F	1	689	TwoBack_NonTarget
186.275	1.483	P	1	620	TwoBack_Target
187.775	1.684	H	1	1067	TwoBack_NonTarget
189.476	1.983	V	0	1207	TwoBack_NonTarget
191.476	1.984	N	1	1271	TwoBack_NonTarget
193.477	1.983	V	0	0	TwoBack_Target
195.477	1.784	C	1	990	TwoBack_NonTarget
197.278	1.583	D	1	837	TwoBack_NonTarget
198.878	1.384	N	1	795	TwoBack_NonTarget
200.279	1.983	D	1	776	TwoBack_Target
202.279	1.984	K	1	1042	TwoBack_NonTarget
204.28	1.783	P	0	0	TwoBack_NonTarget
206.08	1.384	+	NA	0	TwoBack_fix
207.481	1.683	K	1	1308	TwoBack_Target
209.181	1.784	F	0	0	TwoBack_NonTarget
210.982	1.783	Q	1	958	TwoBack_NonTarget
212.782	1.384	F	0	1239	TwoBack_Target
214.183	1.583	S	1	865	TwoBack_NonTarget
215.783	1.884	T	1	793	TwoBack_NonTarget
217.684	1.683	D	0	0	TwoBack_NonTarget
219.384	1.884	T	1	1137	TwoBack_Target
221.285	1.483	C	0	1044	TwoBack_NonTarget
222.785	1.984	M	1	575	TwoBack_NonTarget
224.786	1.483	C	1	944	TwoBack_Target
226.286	1.584	K	1	1185	TwoBack_NonTarget
227.887	1.483	S	1	1267	TwoBack_NonTarget
229.387	1.783	P	0	1274	TwoBack_NonTarget
231.188	1.483	S	1	1044	TwoBack_Target
232.688	1.583	W	1	810	TwoBack_NonTarget
234.288	1.384	S	1	861	TwoBack_Target
235.689	1.883	+	NA	0	TwoBack_fix
237.589	1.884	B	1	852	TwoBack_NonTarget
239.49	1.683	Z	1	678	TwoBack_NonTarget
241.19	1.984	B	1	648	TwoBack_Target
243.191	1.983	Z	1	1007	TwoBack_Target
245.192	1.583	B	1	888	TwoBack_Target
246.792	1.783	K	1	1019	TwoBack_NonTarget
248.593	1.383	L	1	1116	TwoBack_NonTarget
249.993	1.683	D	1	879	TwoBack_NonTarget
251.693	1.684	W	0	1311	TwoBack_NonTarget
253.394	1.683	D	1	1169	TwoBack_Target
255.094	1.484	P	1	647	TwoBack_NonTarget
256.595	1.783	P	0	896	TwoBack_NonTarget
258.395	1.484	P	0	0	TwoBack_Target
259.896	1.883	M	1	1372	TwoBack_NonTarget
261.796	1.684	R	1	985	TwoBack_NonTarget
263.497	1.683	H	1	1002	TwoBack_NonTarget
265.197	1.484	R	1	1264	TwoBack_Target
266.698	1.883	Z	1	935	TwoBack_NonTarget
268.598	1.684	D	0	1111	TwoBack_NonTarget
270.299	1.983	G	1	936	TwoBack_NonTarget
272.299	1.784	D	0	0	TwoBack_Target
274.1	1.383	T	1	1092	TwoBack_NonTarget
275.5	1.984	Y	1	793	TwoBack_NonTarget
277.501	1.883	T	1	1249	TwoBack_Target
279.401	1.484	C	1	744	TwoBack_NonTarget
280.902	1.583	+	NA	0	TwoBack_fix
282.502	1.984	K	1	1105	TwoBack_NonTarget
284.503	1.883	D	1	1131	TwoBack_NonTarget
286.403	1.784	K	1	903	TwoBack_Target
288.204	1.783	B	1	1186	TwoBack_NonTarget
290.004	1.484	V	1	1189	TwoBack_NonTarget
291.505	1.783	Z	1	1131	TwoBack_NonTarget
293.305	1.884	V	1	1312	TwoBack_Target
295.206	1.683	Z	1	1264	TwoBack_Target
296.906	1.584	V	0	0	TwoBack_Target
298.507	1.783	P	1	1309	TwoBack_NonTarget
300.307	1.384	H	1	1194	TwoBack_NonTarget
301.708	1.383	P	1	843	TwoBack_Target
303.108	1.784	T	1	1229	TwoBack_NonTarget
304.909	1.483	P	0	0	TwoBack_Target
306.409	1.884	H	0	44	TwoBack_NonTarget
308.31	1.483	H	1	1199	TwoBack_NonTarget
309.81	1.784	H	0	0	TwoBack_Target
311.611	1.583	C	0	0	TwoBack_NonTarget
313.211	1.583	D	1	1137	TwoBack_NonTarget
314.811	1.584	J	1	1187	TwoBack_NonTarget
316.412	1.383	P	0	800	TwoBack_NonTarget
317.812	1.584	J	1	1097	TwoBack_Target
319.413	1.683	+	NA	0	TwoBack_fix
321.113	1.384	D	1	1262	TwoBack_NonTarget
322.514	1.783	Q	1	1297	TwoBack_NonTarget
324.314	1.484	D	1	1340	TwoBack_Target
325.815	1.683	Q	0	0	TwoBack_Target
327.515	1.684	F	1	1056	TwoBack_NonTarget
329.216	1.883	Z	1	1157	TwoBack_NonTarget
331.116	1.984	T	1	981	TwoBack_NonTarget
333.117	1.583	Z	1	847	TwoBack_Target
334.717	1.584	M	1	1026	TwoBack_NonTarget
336.318	1.383	D	1	1188	TwoBack_NonTarget
337.718	1.984	J	1	1103	TwoBack_NonTarget
339.719	1.383	D	0	0	TwoBack_Target
341.119	1.683	W	0	61	TwoBack_NonTarget
342.819	1.584	D	0	0	TwoBack_Target
344.42	1.383	+	NA	0	TwoBack_fix
351.805	1.601	+	NA	0	ZeroBack_fix
353.423	1.983	M	1	465	ZeroBack_NonTarget
355.423	1.884	X	1	542	ZeroBack_Target
357.324	1.483	N	1	537	ZeroBack_NonTarget
358.824	1.784	V	1	506	ZeroBack_NonTarget
360.625	1.983	F	1	482	ZeroBack_NonTarget
362.625	1.684	D	1	446	ZeroBack_NonTarget
364.326	1.383	X	1	396	ZeroBack_Target
365.726	1.384	W	1	484	ZeroBack_NonTarget
367.126	1.684	N	1	529	ZeroBack_NonTarget
368.827	1.983	X	1	419	ZeroBack_Target
370.828	1.983	Q	1	418	ZeroBack_NonTarget
372.828	1.784	Q	1	409	ZeroBack_NonTarget
374.629	1.883	X	1	577	ZeroBack_Target
376.529	1.684	L	1	459	ZeroBack_NonTarget
378.23	1.883	+	NA	0	ZeroBack_fix
380.13	1.484	F	1	544	ZeroBack_NonTarget
381.631	1.883	Z	0	1008	ZeroBack_NonTarget
383.531	1.384	J	1	1004	ZeroBack_NonTarget
384.932	1.483	H	1	466	ZeroBack_NonTarget
386.432	1.483	V	1	521	ZeroBack_NonTarget
387.932	1.884	F	1	425	ZeroBack_NonTarget
389.833	1.583	X	1	584	ZeroBack_Target
391.433	1.984	X	1	494	ZeroBack_Target
393.434	1.383	P	1	451	ZeroBack_NonTarget
394.834	1.784	B	1	387	ZeroBack_NonTarget
396.635	1.583	S	1	420	ZeroBack_NonTarget
398.235	1.884	X	1	446	ZeroBack_Target
400.136	1.383	X	1	398	ZeroBack_Target
401.536	1.684	D	1	430	ZeroBack_NonTarget
403.237	1.783	X	1	394	ZeroBack_Target
405.037	1.984	P	1	386	ZeroBack_NonTarget
407.038	1.683	X	1	478	ZeroBack_Target
408.738	1.884	J	1	425	ZeroBack_NonTarget
410.639	1.583	D	1	433	ZeroBack_NonTarget
412.239	1.684	B	1	433	ZeroBack_NonTarget
413.94	1.383	+	NA	0	ZeroBack_fix
415.34	1.484	X	1	504	ZeroBack_Target
416.841	1.583	L	1	458	ZeroBack_NonTarget
418.441	1.584	V	1	440	ZeroBack_NonTarget
420.042	1.383	C	1	386	ZeroBack_NonTarget
421.442	1.783	G	1	404	ZeroBack_NonTarget
423.243	1.983	M	1	484	ZeroBack_NonTarget
425.243	1.784	P	1	482	ZeroBack_NonTarget
427.044	1.483	X	1	616	ZeroBack_Target
428.544	1.784	D	1	397	ZeroBack_NonTarget
430.345	1.583	X	1	523	ZeroBack_Target
431.945	1.883	S	1	353	ZeroBack_NonTarget
433.846	1.783	+	NA	0	ZeroBack_fix
435.646	1.484	J	1	601	ZeroBack_NonTarget
437.147	1.883	X	1	432	ZeroBack_Target
439.047	1.884	B	1	441	ZeroBack_NonTarget
440.948	1.683	X	1	486	ZeroBack_Target
442.648	1.584	R	1	460	ZeroBack_NonTarget
444.249	1.683	R	1	481	ZeroBack_NonTarget
445.949	1.683	+	NA	0	ZeroBack_fix
447.65	1.383	H	1	506	ZeroBack_NonTarget
449.05	1.683	X	1	378	ZeroBack_Target
450.75	1.584	S	1	440	ZeroBack_NonTarget
452.351	1.483	B	1	513	ZeroBack_NonTarget
453.851	1.684	D	1	473	ZeroBack_NonTarget
455.552	1.483	X	1	426	ZeroBack_Target
457.052	1.384	N	1	473	ZeroBack_NonTarget
458.453	1.483	X	1	567	ZeroBack_Target
459.953	1.784	R	1	382	ZeroBack_NonTarget
461.754	1.683	S	1	473	ZeroBack_NonTarget
463.454	1.884	X	1	513	ZeroBack_Target
465.355	1.583	J	1	420	ZeroBack_NonTarget
466.955	1.784	X	1	560	ZeroBack_Target
468.756	1.483	X	1	413	ZeroBack_Target
470.256	1.983	F	1	430	ZeroBack_NonTarget
472.257	1.483	+	NA	0	ZeroBack_fix
473.757	1.883	T	1	491	ZeroBack_NonTarget
475.658	1.383	X	1	514	ZeroBack_Target
477.058	1.583	B	1	427	ZeroBack_NonTarget
478.658	1.784	F	1	446	ZeroBack_NonTarget
480.459	1.483	F	1	487	ZeroBack_NonTarget
481.959	1.684	B	1	483	ZeroBack_NonTarget
483.66	1.983	K	1	585	ZeroBack_NonTarget
485.66	1.984	Q	1	489	ZeroBack_NonTarget
487.661	1.383	T	1	461	ZeroBack_NonTarget
489.061	1.984	X	1	485	ZeroBack_Target
491.062	1.983	X	1	393	ZeroBack_Target
493.063	1.583	W	1	428	ZeroBack_NonTarget
494.663	1.983	+	NA	0	ZeroBack_fix
496.664	1.583	X	1	542	ZeroBack_Target
498.264	1.783	Z	1	495	ZeroBack_NonTarget
500.065	1.783	P	1	467	ZeroBack_NonTarget
501.865	1.683	S	1	426	ZeroBack_NonTarget
503.566	1.683	X	1	485	ZeroBack_Target
505.266	1.383	X	1	582	ZeroBack_Target
506.666	1.684	V	1	521	ZeroBack_NonTarget
508.367	1.583	D	1	399	ZeroBack_NonTarget
509.967	1.584	X	1	532	ZeroBack_Target
511.568	1.383	X	1	461	ZeroBack_Target
512.968	1.784	G	1	451	ZeroBack_NonTarget
514.769	1.883	X	1	433	ZeroBack_Target
516.669	1.784	+	NA	0	ZeroBack_fix
