onset	duration	value	accuracy	response_time	trial_type
6.498	1.9	+	NA	0	ZeroBack_fix
8.414	1.584	M	0	953	ZeroBack_NonTarget
10.015	1.683	X	1	656	ZeroBack_Target
11.715	1.384	N	1	788	ZeroBack_NonTarget
13.116	1.983	V	1	722	ZeroBack_NonTarget
15.116	1.384	F	1	427	ZeroBack_NonTarget
16.517	1.483	D	1	529	ZeroBack_NonTarget
18.017	1.784	X	1	629	ZeroBack_Target
19.818	1.383	W	1	468	ZeroBack_NonTarget
21.218	1.983	N	1	668	ZeroBack_NonTarget
23.219	1.483	X	1	675	ZeroBack_Target
24.719	1.783	Q	1	511	ZeroBack_NonTarget
26.519	1.884	Q	1	311	ZeroBack_NonTarget
28.42	1.583	X	1	634	ZeroBack_Target
30.02	1.884	L	1	786	ZeroBack_NonTarget
31.921	1.483	+	NA	0	ZeroBack_fix
33.421	1.684	F	1	385	ZeroBack_NonTarget
35.122	1.583	Z	1	340	ZeroBack_NonTarget
36.722	1.584	J	1	548	ZeroBack_NonTarget
38.323	1.883	H	1	419	ZeroBack_NonTarget
40.223	1.384	V	1	271	ZeroBack_NonTarget
41.624	1.483	F	1	294	ZeroBack_NonTarget
43.124	1.784	X	0	266	ZeroBack_Target
44.925	1.483	X	1	617	ZeroBack_Target
46.425	1.584	P	1	797	ZeroBack_NonTarget
48.026	1.583	B	0	0	ZeroBack_NonTarget
49.626	1.883	S	0	0	ZeroBack_NonTarget
51.527	1.783	X	1	519	ZeroBack_Target
53.327	1.883	X	1	679	ZeroBack_Target
55.228	1.783	D	1	882	ZeroBack_NonTarget
57.028	1.484	X	1	474	ZeroBack_Target
58.528	1.884	P	1	494	ZeroBack_NonTarget
60.429	1.984	X	1	753	ZeroBack_Target
62.43	1.783	J	1	536	ZeroBack_NonTarget
64.23	1.684	D	1	1104	ZeroBack_NonTarget
65.931	1.583	B	1	827	ZeroBack_NonTarget
67.531	1.684	+	NA	0	ZeroBack_fix
69.232	1.683	X	1	893	ZeroBack_Target
70.932	1.783	L	1	1129	ZeroBack_NonTarget
72.733	1.583	V	1	1216	ZeroBack_NonTarget
74.333	1.683	C	1	640	ZeroBack_NonTarget
76.033	1.684	G	1	508	ZeroBack_NonTarget
77.734	1.783	M	1	447	ZeroBack_NonTarget
79.534	1.884	P	1	431	ZeroBack_NonTarget
81.435	1.683	X	1	698	ZeroBack_Target
83.135	1.784	D	1	1230	ZeroBack_NonTarget
84.936	1.383	X	1	669	ZeroBack_Target
86.336	1.684	S	1	557	ZeroBack_NonTarget
88.037	1.583	+	NA	0	ZeroBack_fix
89.637	1.384	J	1	648	ZeroBack_NonTarget
91.038	1.383	X	1	679	ZeroBack_Target
92.438	1.584	B	1	751	ZeroBack_NonTarget
94.039	1.983	X	1	598	ZeroBack_Target
96.039	1.984	R	1	470	ZeroBack_NonTarget
98.04	1.783	R	0	429	ZeroBack_NonTarget
99.84	1.784	+	NA	0	ZeroBack_fix
101.641	1.583	H	1	804	ZeroBack_NonTarget
103.241	1.484	X	1	772	ZeroBack_Target
104.742	1.683	S	1	959	ZeroBack_NonTarget
106.442	1.884	B	1	659	ZeroBack_NonTarget
108.343	1.983	D	1	518	ZeroBack_NonTarget
110.343	1.384	X	1	806	ZeroBack_Target
111.744	1.783	N	1	565	ZeroBack_NonTarget
113.544	1.684	X	1	709	ZeroBack_Target
115.245	1.883	R	1	656	ZeroBack_NonTarget
117.145	1.384	S	1	532	ZeroBack_NonTarget
118.545	1.684	X	1	636	ZeroBack_Target
120.246	1.983	J	1	367	ZeroBack_NonTarget
122.247	1.583	X	1	662	ZeroBack_Target
123.847	1.883	X	1	750	ZeroBack_Target
125.748	1.483	F	1	664	ZeroBack_NonTarget
127.248	1.983	+	NA	0	ZeroBack_fix
129.249	1.783	T	1	891	ZeroBack_NonTarget
131.049	1.683	X	1	732	ZeroBack_Target
132.75	1.483	B	1	1142	ZeroBack_NonTarget
134.25	1.583	F	1	914	ZeroBack_NonTarget
135.85	1.484	F	1	650	ZeroBack_NonTarget
137.351	1.983	B	1	549	ZeroBack_NonTarget
139.351	1.984	K	1	773	ZeroBack_NonTarget
141.352	1.683	Q	1	740	ZeroBack_NonTarget
143.052	1.384	T	1	584	ZeroBack_NonTarget
144.453	1.583	X	1	807	ZeroBack_Target
146.053	1.384	X	1	671	ZeroBack_Target
147.454	1.783	W	1	1142	ZeroBack_NonTarget
149.254	1.484	+	NA	0	ZeroBack_fix
150.755	1.983	X	1	889	ZeroBack_Target
152.755	1.484	Z	1	689	ZeroBack_NonTarget
154.256	1.783	P	1	1036	ZeroBack_NonTarget
156.056	1.384	S	1	692	ZeroBack_NonTarget
157.456	1.984	X	1	508	ZeroBack_Target
159.457	1.884	X	1	571	ZeroBack_Target
161.358	1.583	V	1	398	ZeroBack_NonTarget
162.958	1.684	D	1	790	ZeroBack_NonTarget
164.659	1.383	X	1	689	ZeroBack_Target
166.059	1.883	X	1	689	ZeroBack_Target
167.959	1.684	G	1	685	ZeroBack_NonTarget
169.66	1.483	X	1	400	ZeroBack_Target
171.16	1.984	+	NA	0	ZeroBack_fix
179.146	1.8	+	NA	0	TwoBack_fix
180.963	1.784	V	NA	0	TwoBack_na
182.764	1.983	P	NA	903	TwoBack_na
184.764	1.584	F	1	1016	TwoBack_NonTarget
186.365	1.483	P	0	0	TwoBack_Target
187.865	1.884	H	1	18	TwoBack_NonTarget
189.766	1.483	V	1	997	TwoBack_NonTarget
191.266	1.584	N	1	817	TwoBack_NonTarget
192.867	1.983	V	0	792	TwoBack_Target
194.867	1.584	C	1	520	TwoBack_NonTarget
196.468	1.883	D	1	359	TwoBack_NonTarget
198.368	1.584	N	1	651	TwoBack_NonTarget
199.969	1.683	D	0	474	TwoBack_Target
201.669	1.983	K	1	510	TwoBack_NonTarget
203.67	1.383	P	1	573	TwoBack_NonTarget
205.07	1.583	+	NA	0	TwoBack_fix
206.67	1.784	K	0	573	TwoBack_Target
208.471	1.583	F	1	740	TwoBack_NonTarget
210.071	1.784	Q	1	485	TwoBack_NonTarget
211.872	1.483	F	0	603	TwoBack_Target
213.372	1.384	S	1	695	TwoBack_NonTarget
214.773	1.683	T	1	758	TwoBack_NonTarget
216.473	1.584	D	1	370	TwoBack_NonTarget
218.074	1.383	T	0	569	TwoBack_Target
219.474	1.684	C	1	705	TwoBack_NonTarget
221.175	1.683	M	1	492	TwoBack_NonTarget
222.875	1.483	C	0	520	TwoBack_Target
224.375	1.784	K	1	588	TwoBack_NonTarget
226.176	1.683	S	1	675	TwoBack_NonTarget
227.876	1.384	P	1	535	TwoBack_NonTarget
229.277	1.583	S	0	1142	TwoBack_Target
230.877	1.784	W	1	902	TwoBack_NonTarget
232.678	1.883	S	0	829	TwoBack_Target
234.578	1.984	+	NA	0	TwoBack_fix
236.579	1.783	B	1	1128	TwoBack_NonTarget
238.379	1.984	Z	1	936	TwoBack_NonTarget
240.38	1.683	B	0	615	TwoBack_Target
242.08	1.484	Z	0	698	TwoBack_Target
243.581	1.383	B	0	742	TwoBack_Target
244.981	1.984	K	1	533	TwoBack_NonTarget
246.982	1.883	L	1	500	TwoBack_NonTarget
248.882	1.484	D	1	633	TwoBack_NonTarget
250.383	1.683	W	1	755	TwoBack_NonTarget
252.083	1.684	D	0	623	TwoBack_Target
253.784	1.383	P	1	674	TwoBack_NonTarget
255.184	1.584	P	0	818	TwoBack_NonTarget
256.785	1.783	P	1	841	TwoBack_Target
258.585	1.884	M	1	825	TwoBack_NonTarget
260.486	1.883	R	1	796	TwoBack_NonTarget
262.386	1.584	H	1	544	TwoBack_NonTarget
263.987	1.383	R	0	447	TwoBack_Target
265.387	1.384	Z	1	743	TwoBack_NonTarget
266.787	1.684	D	1	495	TwoBack_NonTarget
268.488	1.683	G	1	578	TwoBack_NonTarget
270.188	1.384	D	0	526	TwoBack_Target
271.589	1.983	T	1	461	TwoBack_NonTarget
273.589	1.884	Y	1	501	TwoBack_NonTarget
275.49	1.383	T	0	0	TwoBack_Target
276.89	1.584	C	1	200	TwoBack_NonTarget
278.491	1.783	+	NA	0	TwoBack_fix
280.291	1.784	K	1	919	TwoBack_NonTarget
282.092	1.683	D	1	710	TwoBack_NonTarget
283.792	1.584	K	0	1218	TwoBack_Target
285.393	1.883	B	1	921	TwoBack_NonTarget
287.293	1.784	V	1	893	TwoBack_NonTarget
289.094	1.483	Z	1	1108	TwoBack_NonTarget
290.594	1.384	V	0	1152	TwoBack_Target
291.995	1.883	Z	0	0	TwoBack_Target
293.895	1.484	V	0	1243	TwoBack_Target
295.396	1.883	P	1	1190	TwoBack_NonTarget
297.296	1.984	H	1	730	TwoBack_NonTarget
299.297	1.983	P	0	1192	TwoBack_Target
301.297	1.984	T	0	0	TwoBack_NonTarget
303.298	1.883	P	0	1337	TwoBack_Target
305.198	1.684	H	1	1171	TwoBack_NonTarget
306.899	1.583	H	0	966	TwoBack_NonTarget
308.499	1.584	H	1	1118	TwoBack_Target
310.1	1.483	C	1	1005	TwoBack_NonTarget
311.6	1.684	D	1	1177	TwoBack_NonTarget
313.301	1.483	J	1	996	TwoBack_NonTarget
314.801	1.783	P	1	992	TwoBack_NonTarget
316.602	1.383	J	0	1031	TwoBack_Target
318.002	1.383	+	NA	0	TwoBack_fix
319.402	1.684	D	1	783	TwoBack_NonTarget
321.103	1.683	Q	1	954	TwoBack_NonTarget
322.803	1.684	D	0	1006	TwoBack_Target
324.504	1.783	Q	0	0	TwoBack_Target
326.304	1.784	F	1	1097	TwoBack_NonTarget
328.105	1.983	Z	1	960	TwoBack_NonTarget
330.105	1.984	T	1	880	TwoBack_NonTarget
332.106	1.483	Z	0	1151	TwoBack_Target
333.606	1.984	M	1	1059	TwoBack_NonTarget
335.607	1.483	D	1	690	TwoBack_NonTarget
337.107	1.884	J	1	734	TwoBack_NonTarget
339.008	1.883	D	0	761	TwoBack_Target
340.908	1.584	W	1	701	TwoBack_NonTarget
342.509	1.783	D	0	364	TwoBack_Target
344.309	1.484	+	NA	0	TwoBack_fix
351.795	1.7	+	NA	0	OneBack_fix
353.512	1.983	Q	NA	0	OneBack_na
355.513	1.483	C	0	0	OneBack_NonTarget
357.013	1.883	C	0	0	OneBack_Target
358.914	1.583	F	0	0	OneBack_NonTarget
360.514	1.483	T	0	0	OneBack_NonTarget
362.014	1.584	W	0	0	OneBack_NonTarget
363.615	1.583	H	1	377	OneBack_NonTarget
365.215	1.984	H	0	361	OneBack_Target
367.216	1.483	H	0	312	OneBack_Target
368.716	1.784	R	1	764	OneBack_NonTarget
370.517	1.883	+	NA	0	OneBack_fix
372.417	1.584	Q	1	703	OneBack_NonTarget
374.018	1.383	P	0	0	OneBack_NonTarget
375.418	1.384	P	0	254	OneBack_Target
376.819	1.683	K	1	741	OneBack_NonTarget
378.519	1.484	H	1	1153	OneBack_NonTarget
380.019	1.684	H	1	1021	OneBack_Target
381.72	1.983	+	NA	0	OneBack_fix
383.721	1.583	K	1	1095	OneBack_NonTarget
385.321	1.883	K	1	1167	OneBack_Target
387.222	1.683	H	1	802	OneBack_NonTarget
388.922	1.583	W	1	806	OneBack_NonTarget
390.522	1.684	T	1	1022	OneBack_NonTarget
392.223	1.383	W	1	913	OneBack_NonTarget
393.623	1.584	W	1	929	OneBack_Target
395.224	1.583	S	1	800	OneBack_NonTarget
396.824	1.884	T	1	969	OneBack_NonTarget
398.725	1.383	+	NA	0	OneBack_fix
400.125	1.684	M	1	763	OneBack_NonTarget
401.826	1.783	M	1	1086	OneBack_Target
403.626	1.784	P	1	662	OneBack_NonTarget
405.427	1.683	P	0	0	OneBack_Target
407.127	1.384	G	1	785	OneBack_NonTarget
408.528	1.783	Z	1	696	OneBack_NonTarget
410.328	1.984	V	1	608	OneBack_NonTarget
412.329	1.483	V	1	1095	OneBack_Target
413.829	1.684	N	1	683	OneBack_NonTarget
415.53	1.483	B	1	853	OneBack_NonTarget
417.03	1.783	T	1	633	OneBack_NonTarget
418.83	1.984	T	1	745	OneBack_Target
420.831	1.983	D	1	712	OneBack_NonTarget
422.832	1.583	V	1	663	OneBack_NonTarget
424.432	1.784	B	1	535	OneBack_NonTarget
426.233	1.483	B	0	0	OneBack_Target
427.733	1.383	B	0	154	OneBack_Target
429.133	1.684	R	1	610	OneBack_NonTarget
430.834	1.383	D	1	765	OneBack_NonTarget
432.234	1.884	K	1	725	OneBack_NonTarget
434.135	1.983	P	1	576	OneBack_NonTarget
436.135	1.484	P	1	856	OneBack_Target
437.636	1.883	D	1	459	OneBack_NonTarget
439.536	1.584	D	0	1239	OneBack_Target
441.137	1.683	D	0	0	OneBack_Target
442.837	1.984	D	1	826	OneBack_Target
444.838	1.783	D	1	569	OneBack_Target
446.638	1.784	F	1	721	OneBack_NonTarget
448.439	1.583	F	1	1000	OneBack_Target
450.039	1.784	N	1	824	OneBack_NonTarget
451.84	1.883	+	NA	0	OneBack_fix
453.74	1.384	J	1	827	OneBack_NonTarget
455.141	1.883	Z	0	0	OneBack_NonTarget
457.041	1.684	S	0	0	OneBack_NonTarget
458.742	1.983	S	0	9	OneBack_Target
460.742	1.784	F	1	697	OneBack_NonTarget
462.543	1.383	F	1	1032	OneBack_Target
463.943	1.484	N	1	624	OneBack_NonTarget
465.444	1.383	C	1	883	OneBack_NonTarget
466.844	1.884	Z	1	995	OneBack_NonTarget
468.745	1.983	Z	1	750	OneBack_Target
470.745	1.384	K	1	957	OneBack_NonTarget
472.146	1.483	+	NA	0	OneBack_fix
473.646	1.383	K	1	1000	OneBack_Target
475.046	1.784	P	1	600	OneBack_NonTarget
476.847	1.883	G	1	1175	OneBack_NonTarget
478.747	1.484	R	1	804	OneBack_NonTarget
480.248	1.783	R	1	822	OneBack_Target
482.048	1.484	L	1	864	OneBack_NonTarget
483.549	1.583	M	0	0	OneBack_NonTarget
485.149	1.584	M	1	841	OneBack_Target
486.75	1.983	P	1	488	OneBack_NonTarget
488.75	1.784	H	1	800	OneBack_NonTarget
490.551	1.783	R	1	727	OneBack_NonTarget
492.351	1.884	J	1	551	OneBack_NonTarget
494.252	1.583	R	1	1314	OneBack_NonTarget
495.852	1.884	R	1	778	OneBack_Target
497.753	1.983	K	1	709	OneBack_NonTarget
499.753	1.484	H	1	1205	OneBack_NonTarget
501.254	1.683	H	1	792	OneBack_Target
502.954	1.784	W	1	620	OneBack_NonTarget
504.755	1.683	W	0	0	OneBack_Target
506.455	1.384	K	0	7	OneBack_NonTarget
507.856	1.883	T	1	558	OneBack_NonTarget
509.756	1.684	T	1	906	OneBack_Target
511.457	1.683	T	1	693	OneBack_Target
513.157	1.684	F	1	833	OneBack_NonTarget
514.858	1.983	V	1	876	OneBack_NonTarget
516.858	1.584	+	NA	0	OneBack_fix
