onset	duration	value	accuracy	response_time	trial_type
4.006	1.293	X	1	881	first_go
5.406	1.793	X	1	417	first_go
7.307	1.392	X	1	372	first_go
8.807	1.592	F	1	0	first_nogo
10.508	1.591	X	1	427	first_go
12.208	1.591	D	1	0	first_nogo
13.909	1.69	J	1	0	first_nogo
15.709	1.29	X	1	442	first_go
17.109	1.69	X	1	426	first_go
18.91	1.189	X	1	385	first_go
20.21	1.689	J	1	0	first_nogo
22.011	1.188	X	1	548	first_go
23.311	1.488	X	1	344	first_go
24.912	1.287	X	1	343	first_go
26.312	1.787	H	1	0	first_nogo
28.213	1.286	X	1	530	first_go
29.598	1.301	X	1	417	first_go
30.998	1.501	X	1	393	first_go
32.598	1.401	B	1	0	first_nogo
34.098	1.401	U	1	0	first_nogo
35.598	1.601	O	1	0	first_nogo
37.299	1.6	X	1	356	first_go
38.999	1.4	X	1	440	first_go
40.5	1.199	+	NA	0	first_fix
41.8	1.599	X	1	439	first_go
43.5	1.199	X	1	331	first_go
44.801	1.498	T	1	0	first_nogo
46.401	1.198	X	1	454	first_go
47.702	1.597	P	1	0	first_nogo
49.402	1.697	+	NA	0	first_fix
51.203	1.196	X	1	444	first_go
52.503	1.696	X	1	352	first_go
54.304	1.495	X	1	335	first_go
55.904	1.395	X	1	391	first_go
57.405	1.794	X	1	394	first_go
59.305	1.694	+	NA	0	first_fix
61.106	1.593	X	1	421	first_go
62.806	1.593	X	1	321	first_go
64.507	1.692	X	1	372	first_go
66.307	1.292	G	1	0	first_nogo
67.708	1.391	X	1	547	first_go
69.208	1.491	X	1	415	first_go
70.808	1.191	A	0	351	first_nogo
72.109	1.19	X	1	474	first_go
73.409	1.29	F	1	0	first_nogo
74.81	1.689	X	1	485	first_go
76.61	1.589	X	1	413	first_go
78.311	1.588	X	1	360	first_go
80.011	1.388	X	1	403	first_go
81.512	1.487	X	1	390	first_go
83.112	1.487	X	1	398	first_go
84.712	1.287	H	1	0	first_nogo
86.098	1.401	X	1	564	first_go
87.598	1.701	I	1	0	first_nogo
89.398	1.201	X	1	560	first_go
90.698	1.401	X	1	380	first_go
92.198	1.601	X	1	368	first_go
93.898	1.601	X	1	412	first_go
95.599	1.6	X	1	359	first_go
97.299	1.6	E	1	0	first_nogo
99	1.299	X	1	430	first_go
100.4	1.699	X	1	334	first_go
102.201	1.798	X	1	309	first_go
104.101	1.798	X	1	345	first_go
106.002	1.797	O	1	0	first_nogo
107.903	1.196	X	1	511	first_go
109.203	1.296	X	1	395	first_go
110.603	1.196	X	1	387	first_go
111.904	1.795	X	1	374	first_go
113.804	1.195	X	1	506	first_go
115.105	1.294	+	NA	0	first_fix
116.505	1.794	X	1	517	first_go
118.406	1.493	D	1	0	first_nogo
120.006	1.393	Q	1	0	first_nogo
121.507	1.392	X	1	499	first_go
123.007	1.792	X	1	343	first_go
124.908	1.291	X	1	410	first_go
126.308	1.791	X	1	338	first_go
128.208	1.791	X	1	342	first_go
130.109	1.29	X	1	401	first_go
131.509	1.79	X	1	369	first_go
133.41	1.489	X	1	468	first_go
135.01	1.189	X	1	372	first_go
136.311	1.488	X	1	359	first_go
137.911	1.588	+	NA	0	first_fix
139.612	1.187	L	1	0	first_nogo
140.912	1.787	X	1	406	first_go
142.813	1.786	N	1	0	first_nogo
144.698	1.201	X	1	604	first_go
145.998	1.201	X	1	368	first_go
147.298	1.501	C	1	0	first_nogo
148.898	1.401	X	1	428	first_go
150.398	1.801	X	1	344	first_go
152.299	1.3	X	1	419	first_go
153.699	1.3	X	1	355	first_go
155.1	1.599	X	1	362	first_go
156.8	1.399	X	1	374	first_go
158.301	1.198	X	1	289	first_go
159.601	1.398	X	1	357	first_go
161.101	1.498	Q	1	0	first_nogo
162.702	1.797	X	1	384	first_go
164.602	1.197	G	1	0	first_nogo
165.903	1.696	+	NA	0	first_fix
167.703	1.396	X	1	463	first_go
169.204	1.595	X	1	386	first_go
170.904	1.695	+	NA	686	first_fix
172.705	1.594	M	1	0	first_nogo
174.405	1.794	X	1	529	first_go
176.306	1.493	T	1	0	first_nogo
177.906	1.193	X	1	492	first_go
179.207	1.192	R	1	0	first_nogo
180.507	1.592	X	1	475	first_go
182.208	1.591	X	1	405	first_go
183.908	1.791	X	1	377	first_go
185.809	1.49	X	1	356	first_go
187.409	1.49	X	1	372	first_go
189.01	1.489	X	1	427	first_go
190.61	1.489	A	1	0	first_nogo
192.21	1.789	X	1	435	first_go
194.111	1.488	X	1	374	first_go
195.711	1.788	L	1	0	first_nogo
197.612	1.487	X	1	417	first_go
199.212	1.287	M	1	0	first_nogo
200.598	1.801	X	1	495	first_go
202.498	1.801	X	1	387	first_go
204.398	1.501	X	1	391	first_go
205.998	1.601	X	1	383	first_go
207.698	1.401	X	1	435	first_go
209.199	1.8	N	1	0	first_nogo
211.099	1.3	I	1	0	first_nogo
212.5	1.399	C	1	0	first_nogo
214	1.499	X	1	509	first_go
215.601	1.298	X	1	308	first_go
217.001	1.398	P	1	0	first_nogo
218.501	1.398	X	1	496	first_go
220.002	1.597	X	1	403	first_go
221.702	1.797	X	1	471	first_go
223.603	1.696	+	NA	0	first_fix
225.403	1.396	R	1	0	first_nogo
226.904	1.595	X	1	597	first_go
228.604	1.395	X	1	361	first_go
230.105	1.794	X	1	444	first_go
232.005	1.294	+	NA	0	first_fix
233.406	1.593	X	1	1071	first_go
235.106	1.193	X	1	491	first_go
236.407	1.692	B	1	0	first_nogo
238.207	1.192	X	1	534	first_go
239.508	1.691	X	1	433	first_go
241.308	1.191	X	1	305	first_go
242.608	1.491	S	1	0	first_nogo
244.209	1.59	X	1	412	first_go
245.909	1.49	X	1	392	first_go
247.51	1.789	X	1	351	first_go
249.41	1.689	+	NA	0	first_fix
251.211	1.588	X	1	506	first_go
252.911	1.588	X	1	366	first_go
254.612	1.487	X	1	369	first_go
256.212	1.687	X	1	353	first_go
257.998	1.301	X	1	367	first_go
259.398	1.301	X	1	479	first_go
260.798	1.201	X	1	367	first_go
262.098	1.501	S	1	0	first_nogo
263.698	1.401	X	1	419	first_go
265.198	1.801	X	1	431	first_go
267.099	1.2	X	1	450	first_go
268.399	1.5	X	1	382	first_go
270	1.699	E	1	0	first_nogo
271.8	1.599	+	NA	0	first_fix
273.501	1.598	+	NA	0	first_fix
275.201	1.498	X	1	356	first_go
276.802	1.297	X	1	338	first_go
278.202	1.397	U	0	379	first_nogo
279.703	1.396	+	NA	0	second_fix
281.203	1.196	T	1	0	second_nogo
282.503	1.696	P	1	0	second_nogo
284.304	1.695	X	1	492	second_go
286.104	1.195	+	NA	0	second_fix
287.405	1.694	X	1	319	second_go
289.205	1.194	S	1	0	second_nogo
290.506	1.693	F	1	0	second_nogo
292.306	1.793	B	1	0	second_nogo
294.207	1.192	M	1	0	second_nogo
295.507	1.792	B	1	0	second_nogo
297.408	1.291	R	1	0	second_nogo
298.808	1.691	R	1	0	second_nogo
300.609	1.79	U	1	0	second_nogo
302.509	1.49	X	1	439	second_go
304.11	1.689	M	1	0	second_nogo
305.91	1.189	G	1	0	second_nogo
307.211	1.788	A	1	0	second_nogo
309.111	1.688	X	1	453	second_go
310.912	1.387	J	1	0	second_nogo
312.412	1.387	H	1	0	second_nogo
313.913	1.386	X	1	467	second_go
315.398	1.701	+	NA	0	second_fix
317.198	1.201	O	1	0	second_nogo
318.498	1.401	S	1	0	second_nogo
319.998	1.601	X	1	550	second_go
321.698	1.501	X	1	442	second_go
323.299	1.6	T	1	0	second_nogo
324.999	1.4	E	1	0	second_nogo
326.5	1.699	I	1	0	second_nogo
328.3	1.699	X	0	0	second_go
330.101	1.398	A	1	0	second_nogo
331.601	1.598	N	1	0	second_nogo
333.302	1.397	L	1	0	second_nogo
334.802	1.497	R	1	0	second_nogo
336.402	1.497	H	1	0	second_nogo
338.003	1.296	N	1	0	second_nogo
339.403	1.496	X	1	489	second_go
341.004	1.495	Q	1	0	second_nogo
342.604	1.395	T	1	0	second_nogo
344.105	1.794	F	1	0	second_nogo
346.005	1.694	C	1	0	second_nogo
347.806	1.693	Q	1	0	second_nogo
349.606	1.293	E	1	0	second_nogo
351.007	1.292	O	1	0	second_nogo
352.407	1.192	L	1	0	second_nogo
353.707	1.692	U	1	0	second_nogo
355.508	1.491	X	1	440	second_go
357.108	1.191	X	1	352	second_go
358.409	1.29	X	1	475	second_go
359.809	1.39	J	1	0	second_nogo
361.31	1.189	J	1	0	second_nogo
362.61	1.589	+	NA	0	second_fix
364.311	1.488	F	1	0	second_nogo
365.911	1.388	U	1	0	second_nogo
367.411	1.788	I	1	0	second_nogo
369.312	1.187	L	1	0	second_nogo
370.612	1.787	O	1	0	second_nogo
372.498	1.701	C	1	0	second_nogo
374.298	1.701	N	1	0	second_nogo
376.098	1.301	S	1	0	second_nogo
377.498	1.301	X	1	769	second_go
378.898	1.701	B	1	0	second_nogo
380.699	1.3	+	NA	0	second_fix
382.099	1.5	D	1	0	second_nogo
383.7	1.299	+	NA	0	second_fix
385.1	1.399	X	1	543	second_go
386.6	1.499	X	1	443	second_go
388.201	1.298	C	1	0	second_nogo
389.601	1.298	I	1	0	second_nogo
391.002	1.597	G	1	0	second_nogo
392.702	1.397	P	1	0	second_nogo
394.203	1.596	M	1	0	second_nogo
395.903	1.496	X	1	516	second_go
397.504	1.395	Q	1	0	second_nogo
399.004	1.295	D	1	0	second_nogo
400.404	1.795	D	1	0	second_nogo
402.305	1.294	G	1	0	second_nogo
403.705	1.794	X	1	762	second_go
405.606	1.493	P	1	0	second_nogo
407.206	1.193	X	1	525	second_go
408.507	1.592	A	1	0	second_nogo
410.207	1.692	X	1	508	second_go
412.008	1.491	H	1	0	second_nogo
413.608	1.291	X	1	843	second_go
415.009	1.69	E	1	0	second_nogo
