onset	duration	value	accuracy	response_time	trial_type
6.507	1.5	+	NA	0	TwoBack_fix
8.024	1.584	V	NA	632	TwoBack_na
9.625	1.383	P	NA	481	TwoBack_na
11.025	1.983	F	0	0	TwoBack_NonTarget
13.026	1.883	P	0	595	TwoBack_Target
14.926	1.384	H	1	655	TwoBack_NonTarget
16.327	1.683	V	1	1048	TwoBack_NonTarget
18.027	1.783	N	0	777	TwoBack_NonTarget
19.828	1.483	V	0	517	TwoBack_Target
21.328	1.683	C	1	684	TwoBack_NonTarget
23.028	1.484	D	0	504	TwoBack_NonTarget
24.529	1.783	N	1	501	TwoBack_NonTarget
26.329	1.784	D	1	879	TwoBack_Target
28.13	1.583	K	1	601	TwoBack_NonTarget
29.73	1.784	P	1	843	TwoBack_NonTarget
31.531	1.583	+	NA	0	TwoBack_fix
33.131	1.684	K	1	915	TwoBack_Target
34.832	1.383	F	1	580	TwoBack_NonTarget
36.232	1.884	Q	0	792	TwoBack_NonTarget
38.133	1.583	F	0	582	TwoBack_Target
39.733	1.384	S	1	581	TwoBack_NonTarget
41.134	1.683	T	1	637	TwoBack_NonTarget
42.834	1.984	D	1	899	TwoBack_NonTarget
44.835	1.583	T	1	510	TwoBack_Target
46.435	1.884	C	1	558	TwoBack_NonTarget
48.336	1.483	M	1	734	TwoBack_NonTarget
49.836	1.484	C	1	874	TwoBack_Target
51.337	1.383	K	1	568	TwoBack_NonTarget
52.737	1.683	S	1	834	TwoBack_NonTarget
54.437	1.984	P	1	836	TwoBack_NonTarget
56.438	1.583	S	1	801	TwoBack_Target
58.038	1.784	W	1	591	TwoBack_NonTarget
59.839	1.583	S	1	741	TwoBack_Target
61.439	1.984	+	NA	0	TwoBack_fix
63.44	1.883	B	1	644	TwoBack_NonTarget
65.341	1.983	Z	1	705	TwoBack_NonTarget
67.341	1.784	B	1	594	TwoBack_Target
69.142	1.483	Z	1	755	TwoBack_Target
70.642	1.984	B	0	1158	TwoBack_Target
72.643	1.783	K	1	814	TwoBack_NonTarget
74.443	1.384	L	1	944	TwoBack_NonTarget
75.844	1.783	D	1	830	TwoBack_NonTarget
77.644	1.784	W	1	906	TwoBack_NonTarget
79.445	1.883	D	1	1001	TwoBack_Target
81.345	1.484	P	1	768	TwoBack_NonTarget
82.846	1.883	P	1	1180	TwoBack_NonTarget
84.746	1.584	P	1	979	TwoBack_Target
86.347	1.683	M	1	570	TwoBack_NonTarget
88.047	1.584	R	1	746	TwoBack_NonTarget
89.648	1.883	H	1	740	TwoBack_NonTarget
91.548	1.684	R	1	869	TwoBack_Target
93.249	1.883	Z	1	555	TwoBack_NonTarget
95.149	1.484	D	1	798	TwoBack_NonTarget
96.65	1.483	G	1	610	TwoBack_NonTarget
98.15	1.883	D	1	840	TwoBack_Target
100.051	1.483	T	1	630	TwoBack_NonTarget
101.551	1.383	Y	1	793	TwoBack_NonTarget
102.951	1.784	T	0	888	TwoBack_Target
104.752	1.583	C	1	860	TwoBack_NonTarget
106.352	1.584	+	NA	0	TwoBack_fix
107.953	1.683	K	1	721	TwoBack_NonTarget
109.653	1.784	D	1	1008	TwoBack_NonTarget
111.454	1.983	K	1	734	TwoBack_Target
113.454	1.584	B	1	525	TwoBack_NonTarget
115.055	1.683	V	1	627	TwoBack_NonTarget
116.755	1.684	Z	1	553	TwoBack_NonTarget
118.456	1.883	V	1	775	TwoBack_Target
120.356	1.884	Z	1	903	TwoBack_Target
122.257	1.383	V	0	963	TwoBack_Target
123.657	1.384	P	1	1037	TwoBack_NonTarget
125.058	1.983	H	1	699	TwoBack_NonTarget
127.058	1.484	P	1	772	TwoBack_Target
128.559	1.783	T	1	557	TwoBack_NonTarget
130.359	1.684	P	1	823	TwoBack_Target
132.06	1.583	H	0	1002	TwoBack_NonTarget
133.66	1.384	H	1	1088	TwoBack_NonTarget
135.061	1.383	H	1	1177	TwoBack_Target
136.461	1.383	C	0	0	TwoBack_NonTarget
137.861	1.784	D	1	1102	TwoBack_NonTarget
139.662	1.983	J	1	129	TwoBack_NonTarget
141.662	1.884	P	1	790	TwoBack_NonTarget
143.563	1.683	J	1	761	TwoBack_Target
145.263	1.984	+	NA	0	TwoBack_fix
147.264	1.483	D	0	962	TwoBack_NonTarget
148.764	1.584	Q	1	565	TwoBack_NonTarget
150.365	1.983	D	1	639	TwoBack_Target
152.366	1.783	Q	1	1046	TwoBack_Target
154.166	1.383	F	1	626	TwoBack_NonTarget
155.566	1.684	Z	1	703	TwoBack_NonTarget
157.267	1.683	T	1	706	TwoBack_NonTarget
158.967	1.884	Z	1	544	TwoBack_Target
160.868	1.683	M	1	575	TwoBack_NonTarget
162.568	1.484	D	1	964	TwoBack_NonTarget
164.069	1.983	J	1	617	TwoBack_NonTarget
166.069	1.684	D	1	522	TwoBack_Target
167.77	1.583	W	1	487	TwoBack_NonTarget
169.37	1.784	D	1	896	TwoBack_Target
171.171	1.983	+	NA	0	TwoBack_fix
179.157	1.7	+	NA	0	OneBack_fix
180.874	1.783	Q	NA	445	OneBack_na
182.674	1.684	C	0	0	OneBack_NonTarget
184.375	1.883	C	1	985	OneBack_Target
186.275	1.884	F	1	1012	OneBack_NonTarget
188.176	1.483	T	0	848	OneBack_NonTarget
189.676	1.384	W	1	1243	OneBack_NonTarget
191.077	1.883	H	1	650	OneBack_NonTarget
192.977	1.984	H	1	655	OneBack_Target
194.978	1.583	H	1	1036	OneBack_Target
196.578	1.984	R	1	606	OneBack_NonTarget
198.579	1.383	+	NA	0	OneBack_fix
199.979	1.484	Q	1	752	OneBack_NonTarget
201.48	1.783	P	1	946	OneBack_NonTarget
203.28	1.584	P	1	816	OneBack_Target
204.881	1.783	K	1	497	OneBack_NonTarget
206.681	1.884	H	1	738	OneBack_NonTarget
208.582	1.483	H	1	837	OneBack_Target
210.082	1.983	+	NA	0	OneBack_fix
212.083	1.683	K	1	638	OneBack_NonTarget
213.783	1.584	K	1	736	OneBack_Target
215.384	1.483	H	1	835	OneBack_NonTarget
216.884	1.983	W	1	929	OneBack_NonTarget
218.885	1.383	T	1	614	OneBack_NonTarget
220.285	1.683	W	1	527	OneBack_NonTarget
221.985	1.484	W	1	794	OneBack_Target
223.486	1.883	S	1	544	OneBack_NonTarget
225.386	1.384	T	1	680	OneBack_NonTarget
226.787	1.683	+	NA	0	OneBack_fix
228.487	1.484	M	1	605	OneBack_NonTarget
229.988	1.483	M	1	896	OneBack_Target
231.488	1.484	P	1	613	OneBack_NonTarget
232.989	1.483	P	1	529	OneBack_Target
234.489	1.683	G	1	525	OneBack_NonTarget
236.189	1.984	Z	1	639	OneBack_NonTarget
238.19	1.784	V	1	665	OneBack_NonTarget
239.991	1.783	V	1	923	OneBack_Target
241.791	1.584	N	1	833	OneBack_NonTarget
243.392	1.783	B	1	629	OneBack_NonTarget
245.192	1.584	T	1	674	OneBack_NonTarget
246.793	1.383	T	1	785	OneBack_Target
248.193	1.883	D	1	619	OneBack_NonTarget
250.093	1.984	V	1	784	OneBack_NonTarget
252.094	1.384	B	1	652	OneBack_NonTarget
253.494	1.584	B	1	785	OneBack_Target
255.095	1.583	B	1	666	OneBack_Target
256.695	1.884	R	1	606	OneBack_NonTarget
258.596	1.683	D	1	711	OneBack_NonTarget
260.296	1.684	K	1	710	OneBack_NonTarget
261.997	1.783	P	1	516	OneBack_NonTarget
263.797	1.784	P	0	529	OneBack_Target
265.598	1.983	D	1	663	OneBack_NonTarget
267.598	1.584	D	1	749	OneBack_Target
269.199	1.583	D	1	619	OneBack_Target
270.799	1.784	D	1	503	OneBack_Target
272.6	1.683	D	1	500	OneBack_Target
274.3	1.984	F	1	583	OneBack_NonTarget
276.301	1.383	F	1	800	OneBack_Target
277.701	1.984	N	1	557	OneBack_NonTarget
279.702	1.483	+	NA	0	OneBack_fix
281.202	1.684	J	1	618	OneBack_NonTarget
282.903	1.883	Z	1	641	OneBack_NonTarget
284.803	1.984	S	1	614	OneBack_NonTarget
286.804	1.983	S	1	1209	OneBack_Target
288.805	1.683	F	1	555	OneBack_NonTarget
290.505	1.684	F	1	754	OneBack_Target
292.206	1.783	N	1	635	OneBack_NonTarget
294.006	1.584	C	0	835	OneBack_NonTarget
295.607	1.583	Z	1	1052	OneBack_NonTarget
297.207	1.583	Z	1	710	OneBack_Target
298.807	1.984	K	1	664	OneBack_NonTarget
300.808	1.483	+	NA	0	OneBack_fix
302.308	1.484	K	1	750	OneBack_Target
303.809	1.883	P	1	585	OneBack_NonTarget
305.709	1.884	G	1	584	OneBack_NonTarget
307.61	1.383	R	1	912	OneBack_NonTarget
309.01	1.684	R	1	995	OneBack_Target
310.711	1.483	L	1	559	OneBack_NonTarget
312.211	1.784	M	1	651	OneBack_NonTarget
314.012	1.383	M	1	674	OneBack_Target
315.412	1.684	P	1	500	OneBack_NonTarget
317.113	1.383	H	1	691	OneBack_NonTarget
318.513	1.784	R	1	848	OneBack_NonTarget
320.314	1.983	J	1	709	OneBack_NonTarget
322.314	1.384	R	1	972	OneBack_NonTarget
323.715	1.883	R	1	835	OneBack_Target
325.615	1.684	K	1	532	OneBack_NonTarget
327.316	1.583	H	1	549	OneBack_NonTarget
328.916	1.784	H	1	732	OneBack_Target
330.717	1.783	W	1	591	OneBack_NonTarget
332.517	1.584	W	1	929	OneBack_Target
334.118	1.583	K	1	628	OneBack_NonTarget
335.718	1.383	T	1	826	OneBack_NonTarget
337.118	1.684	T	1	841	OneBack_Target
338.819	1.883	T	1	1041	OneBack_Target
340.719	1.384	F	1	578	OneBack_NonTarget
342.12	1.783	V	1	1213	OneBack_NonTarget
343.92	1.884	+	NA	0	OneBack_fix
351.806	1.7	+	NA	0	ZeroBack_fix
353.523	1.784	M	0	0	ZeroBack_NonTarget
355.324	1.683	X	1	693	ZeroBack_Target
357.024	1.484	N	1	529	ZeroBack_NonTarget
358.525	1.983	V	1	487	ZeroBack_NonTarget
360.525	1.884	F	1	450	ZeroBack_NonTarget
362.426	1.983	D	1	503	ZeroBack_NonTarget
364.426	1.384	X	1	602	ZeroBack_Target
365.827	1.983	W	1	497	ZeroBack_NonTarget
367.827	1.884	N	1	717	ZeroBack_NonTarget
369.728	1.483	X	1	696	ZeroBack_Target
371.228	1.584	Q	1	482	ZeroBack_NonTarget
372.829	1.583	Q	0	780	ZeroBack_NonTarget
374.429	1.584	X	1	671	ZeroBack_Target
376.03	1.783	L	1	611	ZeroBack_NonTarget
377.83	1.884	+	NA	0	ZeroBack_fix
379.731	1.583	F	1	556	ZeroBack_NonTarget
381.331	1.384	Z	1	553	ZeroBack_NonTarget
382.731	1.684	J	1	577	ZeroBack_NonTarget
384.432	1.683	H	1	485	ZeroBack_NonTarget
386.132	1.584	V	1	594	ZeroBack_NonTarget
387.733	1.983	F	1	558	ZeroBack_NonTarget
389.733	1.384	X	1	577	ZeroBack_Target
391.134	1.783	X	1	413	ZeroBack_Target
392.934	1.884	P	1	545	ZeroBack_NonTarget
394.835	1.383	B	1	536	ZeroBack_NonTarget
396.235	1.784	S	1	515	ZeroBack_NonTarget
398.036	1.483	X	1	621	ZeroBack_Target
399.536	1.584	X	1	607	ZeroBack_Target
401.137	1.583	D	1	554	ZeroBack_NonTarget
402.737	1.584	X	1	607	ZeroBack_Target
404.338	1.483	P	1	852	ZeroBack_NonTarget
405.838	1.684	X	1	714	ZeroBack_Target
407.539	1.483	J	1	551	ZeroBack_NonTarget
409.039	1.683	D	1	682	ZeroBack_NonTarget
410.739	1.584	B	1	458	ZeroBack_NonTarget
412.34	1.883	+	NA	0	ZeroBack_fix
414.24	1.984	X	1	672	ZeroBack_Target
416.241	1.884	L	1	502	ZeroBack_NonTarget
418.142	1.483	V	1	473	ZeroBack_NonTarget
419.642	1.483	C	1	580	ZeroBack_NonTarget
421.142	1.684	G	1	468	ZeroBack_NonTarget
422.843	1.683	M	1	476	ZeroBack_NonTarget
424.543	1.684	P	1	601	ZeroBack_NonTarget
426.244	1.383	X	1	615	ZeroBack_Target
427.644	1.584	D	1	620	ZeroBack_NonTarget
429.245	1.783	X	1	669	ZeroBack_Target
431.045	1.484	S	1	503	ZeroBack_NonTarget
432.546	1.883	+	NA	0	ZeroBack_fix
434.446	1.584	J	1	685	ZeroBack_NonTarget
436.047	1.383	X	1	584	ZeroBack_Target
437.447	1.884	B	1	458	ZeroBack_NonTarget
439.348	1.783	X	1	659	ZeroBack_Target
441.148	1.684	R	1	404	ZeroBack_NonTarget
442.849	1.683	R	1	388	ZeroBack_NonTarget
444.549	1.484	+	NA	0	ZeroBack_fix
446.05	1.783	H	1	522	ZeroBack_NonTarget
447.85	1.884	X	1	604	ZeroBack_Target
449.751	1.683	S	1	556	ZeroBack_NonTarget
451.451	1.884	B	1	1058	ZeroBack_NonTarget
453.352	1.483	D	1	523	ZeroBack_NonTarget
454.852	1.784	X	1	551	ZeroBack_Target
456.653	1.383	N	1	386	ZeroBack_NonTarget
458.053	1.783	X	1	691	ZeroBack_Target
459.854	1.983	R	1	464	ZeroBack_NonTarget
461.854	1.684	S	1	715	ZeroBack_NonTarget
463.555	1.583	X	1	732	ZeroBack_Target
465.155	1.384	J	1	452	ZeroBack_NonTarget
466.555	1.384	X	1	586	ZeroBack_Target
467.956	1.383	X	1	607	ZeroBack_Target
469.356	1.684	F	1	469	ZeroBack_NonTarget
471.057	1.783	+	NA	0	ZeroBack_fix
472.857	1.884	T	1	678	ZeroBack_NonTarget
474.758	1.783	X	1	625	ZeroBack_Target
476.558	1.984	B	1	422	ZeroBack_NonTarget
478.559	1.983	F	1	970	ZeroBack_NonTarget
480.559	1.784	F	1	549	ZeroBack_NonTarget
482.36	1.483	B	1	540	ZeroBack_NonTarget
483.86	1.384	K	1	682	ZeroBack_NonTarget
485.261	1.583	Q	1	606	ZeroBack_NonTarget
486.861	1.984	T	1	486	ZeroBack_NonTarget
488.862	1.483	X	1	510	ZeroBack_Target
490.362	1.684	X	1	587	ZeroBack_Target
492.063	1.483	W	1	506	ZeroBack_NonTarget
493.563	1.584	+	NA	0	ZeroBack_fix
495.164	1.883	X	0	633	ZeroBack_Target
497.064	1.984	Z	1	542	ZeroBack_NonTarget
499.065	1.883	P	1	551	ZeroBack_NonTarget
500.965	1.984	S	1	495	ZeroBack_NonTarget
502.966	1.983	X	1	701	ZeroBack_Target
504.966	1.784	X	1	604	ZeroBack_Target
506.767	1.383	V	1	603	ZeroBack_NonTarget
508.167	1.584	D	1	619	ZeroBack_NonTarget
509.768	1.783	X	1	645	ZeroBack_Target
511.568	1.784	X	1	782	ZeroBack_Target
513.369	1.683	G	1	538	ZeroBack_NonTarget
515.069	1.984	X	1	562	ZeroBack_Target
517.07	1.383	+	NA	0	ZeroBack_fix
