onset	duration	value	accuracy	response_time	trial_type
6.508	1.7	+	NA	0	ZeroBack_fix
8.225	1.784	M	1	1091	ZeroBack_NonTarget
10.026	1.583	X	1	692	ZeroBack_Target
11.626	1.984	N	1	807	ZeroBack_NonTarget
13.627	1.483	V	1	719	ZeroBack_NonTarget
15.127	1.384	F	1	794	ZeroBack_NonTarget
16.528	1.583	D	1	580	ZeroBack_NonTarget
18.128	1.484	X	1	665	ZeroBack_Target
19.629	1.583	W	1	887	ZeroBack_NonTarget
21.229	1.884	N	1	624	ZeroBack_NonTarget
23.13	1.983	X	1	709	ZeroBack_Target
25.13	1.784	Q	1	587	ZeroBack_NonTarget
26.931	1.783	Q	1	826	ZeroBack_NonTarget
28.731	1.984	X	1	709	ZeroBack_Target
30.732	1.983	L	1	598	ZeroBack_NonTarget
32.732	1.584	+	NA	0	ZeroBack_fix
34.333	1.383	F	1	692	ZeroBack_NonTarget
35.733	1.684	Z	1	587	ZeroBack_NonTarget
37.434	1.883	J	1	544	ZeroBack_NonTarget
39.334	1.384	H	1	570	ZeroBack_NonTarget
40.735	1.983	V	1	571	ZeroBack_NonTarget
42.735	1.384	F	1	538	ZeroBack_NonTarget
44.136	1.483	X	1	770	ZeroBack_Target
45.636	1.784	X	1	607	ZeroBack_Target
47.437	1.883	P	1	619	ZeroBack_NonTarget
49.337	1.484	B	1	664	ZeroBack_NonTarget
50.838	1.483	S	1	636	ZeroBack_NonTarget
52.338	1.383	X	1	675	ZeroBack_Target
53.738	1.384	X	1	575	ZeroBack_Target
55.139	1.483	D	1	535	ZeroBack_NonTarget
56.639	1.684	X	1	640	ZeroBack_Target
58.34	1.683	P	1	516	ZeroBack_NonTarget
60.04	1.884	X	1	654	ZeroBack_Target
61.941	1.683	J	1	601	ZeroBack_NonTarget
63.641	1.384	D	1	627	ZeroBack_NonTarget
65.042	1.783	B	1	666	ZeroBack_NonTarget
66.842	1.384	+	NA	0	ZeroBack_fix
68.243	1.883	X	1	747	ZeroBack_Target
70.143	1.484	L	1	521	ZeroBack_NonTarget
71.644	1.583	V	1	684	ZeroBack_NonTarget
73.244	1.683	C	1	490	ZeroBack_NonTarget
74.944	1.384	G	1	533	ZeroBack_NonTarget
76.345	1.883	M	1	538	ZeroBack_NonTarget
78.245	1.484	P	1	483	ZeroBack_NonTarget
79.746	1.683	X	1	632	ZeroBack_Target
81.446	1.684	D	1	625	ZeroBack_NonTarget
83.147	1.583	X	1	623	ZeroBack_Target
84.747	1.884	S	1	549	ZeroBack_NonTarget
86.648	1.883	+	NA	0	ZeroBack_fix
88.548	1.884	J	1	536	ZeroBack_NonTarget
90.449	1.983	X	1	668	ZeroBack_Target
92.45	1.683	B	1	472	ZeroBack_NonTarget
94.15	1.783	X	1	645	ZeroBack_Target
95.951	1.983	R	1	542	ZeroBack_NonTarget
97.951	1.884	R	1	538	ZeroBack_NonTarget
99.852	1.583	+	NA	0	ZeroBack_fix
101.452	1.684	H	1	581	ZeroBack_NonTarget
103.153	1.883	X	1	525	ZeroBack_Target
105.053	1.584	S	1	515	ZeroBack_NonTarget
106.654	1.583	B	1	613	ZeroBack_NonTarget
108.254	1.484	D	1	633	ZeroBack_NonTarget
109.754	1.984	X	1	621	ZeroBack_Target
111.755	1.584	N	1	470	ZeroBack_NonTarget
113.355	1.684	X	1	597	ZeroBack_Target
115.056	1.683	R	1	463	ZeroBack_NonTarget
116.756	1.984	S	1	537	ZeroBack_NonTarget
118.757	1.684	X	1	625	ZeroBack_Target
120.458	1.583	J	1	682	ZeroBack_NonTarget
122.058	1.983	X	1	586	ZeroBack_Target
124.059	1.783	X	1	647	ZeroBack_Target
125.859	1.684	F	1	540	ZeroBack_NonTarget
127.56	1.783	+	NA	0	ZeroBack_fix
129.36	1.584	T	1	606	ZeroBack_NonTarget
130.961	1.483	X	1	443	ZeroBack_Target
132.461	1.783	B	1	511	ZeroBack_NonTarget
134.261	1.784	F	1	589	ZeroBack_NonTarget
136.062	1.383	F	1	512	ZeroBack_NonTarget
137.462	1.984	B	1	527	ZeroBack_NonTarget
139.463	1.483	K	1	716	ZeroBack_NonTarget
140.963	1.884	Q	1	508	ZeroBack_NonTarget
142.864	1.383	T	1	596	ZeroBack_NonTarget
144.264	1.784	X	1	664	ZeroBack_Target
146.065	1.983	X	1	387	ZeroBack_Target
148.065	1.584	W	1	731	ZeroBack_NonTarget
149.666	1.383	+	NA	0	ZeroBack_fix
151.066	1.484	X	1	599	ZeroBack_Target
152.567	1.783	Z	1	500	ZeroBack_NonTarget
154.367	1.784	P	1	427	ZeroBack_NonTarget
156.168	1.883	S	1	456	ZeroBack_NonTarget
158.068	1.984	X	1	561	ZeroBack_Target
160.069	1.583	X	1	616	ZeroBack_Target
161.669	1.484	V	1	721	ZeroBack_NonTarget
163.17	1.683	D	1	639	ZeroBack_NonTarget
164.87	1.784	X	1	582	ZeroBack_Target
166.671	1.583	X	1	659	ZeroBack_Target
168.271	1.384	G	1	616	ZeroBack_NonTarget
169.672	1.783	X	1	603	ZeroBack_Target
171.472	1.684	+	NA	0	ZeroBack_fix
179.158	1.5	+	NA	0	OneBack_fix
180.675	1.683	Q	NA	0	OneBack_na
182.375	1.784	C	1	691	OneBack_NonTarget
184.176	1.383	C	0	508	OneBack_Target
185.576	1.684	F	1	1020	OneBack_NonTarget
187.277	1.383	T	1	605	OneBack_NonTarget
188.677	1.784	W	1	586	OneBack_NonTarget
190.478	1.583	H	1	536	OneBack_NonTarget
192.078	1.984	H	1	687	OneBack_Target
194.079	1.983	H	1	540	OneBack_Target
196.079	1.884	R	1	576	OneBack_NonTarget
197.98	1.683	+	NA	0	OneBack_fix
199.68	1.484	Q	1	544	OneBack_NonTarget
201.181	1.683	P	1	1034	OneBack_NonTarget
202.881	1.784	P	1	502	OneBack_Target
204.682	1.983	K	1	634	OneBack_NonTarget
206.682	1.984	H	1	605	OneBack_NonTarget
208.683	1.783	H	1	1063	OneBack_Target
210.483	1.984	+	NA	0	OneBack_fix
212.484	1.583	K	1	735	OneBack_NonTarget
214.084	1.884	K	1	893	OneBack_Target
215.985	1.383	H	1	598	OneBack_NonTarget
217.385	1.784	W	1	768	OneBack_NonTarget
219.186	1.583	T	1	519	OneBack_NonTarget
220.786	1.584	W	1	924	OneBack_NonTarget
222.387	1.583	W	1	695	OneBack_Target
223.987	1.984	S	1	669	OneBack_NonTarget
225.988	1.783	T	1	602	OneBack_NonTarget
227.788	1.384	+	NA	0	OneBack_fix
229.189	1.683	M	1	740	OneBack_NonTarget
230.889	1.684	M	1	575	OneBack_Target
232.59	1.683	P	1	751	OneBack_NonTarget
234.29	1.984	P	1	733	OneBack_Target
236.291	1.483	G	1	482	OneBack_NonTarget
237.791	1.584	Z	1	599	OneBack_NonTarget
239.392	1.783	V	1	612	OneBack_NonTarget
241.192	1.384	V	1	741	OneBack_Target
242.593	1.583	N	1	547	OneBack_NonTarget
244.193	1.883	B	1	559	OneBack_NonTarget
246.094	1.383	T	1	575	OneBack_NonTarget
247.494	1.883	T	1	679	OneBack_Target
249.394	1.484	D	1	546	OneBack_NonTarget
250.895	1.883	V	1	491	OneBack_NonTarget
252.795	1.484	B	1	587	OneBack_NonTarget
254.296	1.583	B	1	689	OneBack_Target
255.896	1.784	B	1	629	OneBack_Target
257.697	1.783	R	1	560	OneBack_NonTarget
259.497	1.584	D	1	740	OneBack_NonTarget
261.098	1.583	K	1	684	OneBack_NonTarget
262.698	1.984	P	1	671	OneBack_NonTarget
264.699	1.783	P	1	671	OneBack_Target
266.499	1.384	D	1	861	OneBack_NonTarget
267.9	1.683	D	1	619	OneBack_Target
269.6	1.484	D	1	538	OneBack_Target
271.101	1.583	D	1	462	OneBack_Target
272.701	1.384	D	1	448	OneBack_Target
274.102	1.783	F	1	532	OneBack_NonTarget
275.902	1.684	F	1	594	OneBack_Target
277.603	1.683	N	1	697	OneBack_NonTarget
279.303	1.784	+	NA	0	OneBack_fix
281.104	1.383	J	1	559	OneBack_NonTarget
282.504	1.483	Z	1	704	OneBack_NonTarget
284.004	1.884	S	1	689	OneBack_NonTarget
285.905	1.683	S	1	550	OneBack_Target
287.605	1.784	F	1	601	OneBack_NonTarget
289.406	1.883	F	1	602	OneBack_Target
291.306	1.584	N	1	622	OneBack_NonTarget
292.907	1.483	C	1	709	OneBack_NonTarget
294.407	1.384	Z	1	685	OneBack_NonTarget
295.808	1.483	Z	1	492	OneBack_Target
297.308	1.484	K	1	653	OneBack_NonTarget
298.809	1.983	+	NA	0	OneBack_fix
300.809	1.784	K	1	791	OneBack_Target
302.61	1.683	P	1	603	OneBack_NonTarget
304.31	1.684	G	1	589	OneBack_NonTarget
306.011	1.583	R	1	733	OneBack_NonTarget
307.611	1.384	R	1	712	OneBack_Target
309.012	1.383	L	1	591	OneBack_NonTarget
310.412	1.683	M	1	532	OneBack_NonTarget
312.112	1.984	M	1	479	OneBack_Target
314.113	1.883	P	1	527	OneBack_NonTarget
316.014	1.883	H	1	594	OneBack_NonTarget
317.914	1.484	R	1	540	OneBack_NonTarget
319.415	1.683	J	1	571	OneBack_NonTarget
321.115	1.883	R	1	751	OneBack_NonTarget
323.016	1.983	R	1	619	OneBack_Target
325.016	1.884	K	1	704	OneBack_NonTarget
326.917	1.583	H	1	675	OneBack_NonTarget
328.517	1.884	H	1	638	OneBack_Target
330.418	1.583	W	1	569	OneBack_NonTarget
332.018	1.784	W	1	610	OneBack_Target
333.819	1.483	K	1	652	OneBack_NonTarget
335.319	1.384	T	1	610	OneBack_NonTarget
336.719	1.684	T	1	642	OneBack_Target
338.42	1.483	T	1	647	OneBack_Target
339.92	1.984	F	1	579	OneBack_NonTarget
341.921	1.883	V	1	779	OneBack_NonTarget
343.822	1.983	+	NA	0	OneBack_fix
351.807	2	+	NA	0	TwoBack_fix
353.824	1.884	V	NA	0	TwoBack_na
355.725	1.583	P	NA	1174	TwoBack_na
357.325	1.984	F	1	716	TwoBack_NonTarget
359.326	1.983	P	0	0	TwoBack_Target
361.327	1.783	H	1	987	TwoBack_NonTarget
363.127	1.584	V	1	861	TwoBack_NonTarget
364.728	1.683	N	1	1217	TwoBack_NonTarget
366.428	1.683	V	0	0	TwoBack_Target
368.128	1.584	C	1	618	TwoBack_NonTarget
369.729	1.383	D	0	0	TwoBack_NonTarget
371.129	1.584	N	1	747	TwoBack_NonTarget
372.73	1.483	D	0	0	TwoBack_Target
374.23	1.584	K	1	1100	TwoBack_NonTarget
375.831	1.983	P	1	873	TwoBack_NonTarget
377.831	1.384	+	NA	0	TwoBack_fix
379.232	1.483	K	0	0	TwoBack_Target
380.732	1.684	F	1	644	TwoBack_NonTarget
382.433	1.783	Q	1	532	TwoBack_NonTarget
384.233	1.984	F	1	1099	TwoBack_Target
386.234	1.683	S	1	575	TwoBack_NonTarget
387.934	1.384	T	1	788	TwoBack_NonTarget
389.335	1.783	D	1	732	TwoBack_NonTarget
391.135	1.684	T	0	552	TwoBack_Target
392.836	1.683	C	0	0	TwoBack_NonTarget
394.536	1.684	M	1	94	TwoBack_NonTarget
396.237	1.583	C	1	892	TwoBack_Target
397.837	1.783	K	1	1333	TwoBack_NonTarget
399.637	1.784	S	0	0	TwoBack_NonTarget
401.438	1.983	P	0	0	TwoBack_NonTarget
403.439	1.783	S	1	907	TwoBack_Target
405.239	1.884	W	1	1197	TwoBack_NonTarget
407.14	1.883	S	1	735	TwoBack_Target
409.04	1.384	+	NA	0	TwoBack_fix
410.441	1.483	B	1	1010	TwoBack_NonTarget
411.941	1.583	Z	1	683	TwoBack_NonTarget
413.541	1.684	B	1	514	TwoBack_Target
415.242	1.983	Z	1	1058	TwoBack_Target
417.243	1.683	B	0	1221	TwoBack_Target
418.943	1.483	K	1	747	TwoBack_NonTarget
420.443	1.784	L	1	627	TwoBack_NonTarget
422.244	1.883	D	1	552	TwoBack_NonTarget
424.145	1.883	W	1	621	TwoBack_NonTarget
426.045	1.584	D	0	0	TwoBack_Target
427.646	1.483	P	1	1081	TwoBack_NonTarget
429.146	1.483	P	0	749	TwoBack_NonTarget
430.646	1.884	P	1	495	TwoBack_Target
432.547	1.783	M	0	0	TwoBack_NonTarget
434.347	1.884	R	0	0	TwoBack_NonTarget
436.248	1.783	H	1	603	TwoBack_NonTarget
438.049	1.383	R	1	1260	TwoBack_Target
439.449	1.883	Z	1	703	TwoBack_NonTarget
441.349	1.884	D	1	1029	TwoBack_NonTarget
443.25	1.383	G	1	689	TwoBack_NonTarget
444.65	1.484	D	1	597	TwoBack_Target
446.151	1.983	T	1	585	TwoBack_NonTarget
448.151	1.884	Y	1	675	TwoBack_NonTarget
450.052	1.983	T	0	867	TwoBack_Target
452.053	1.983	C	1	634	TwoBack_NonTarget
454.053	1.784	+	NA	0	TwoBack_fix
455.854	1.683	K	1	790	TwoBack_NonTarget
457.554	1.484	D	0	757	TwoBack_NonTarget
459.055	1.383	K	0	524	TwoBack_Target
460.455	1.783	B	1	1109	TwoBack_NonTarget
462.255	1.484	V	1	575	TwoBack_NonTarget
463.756	1.783	Z	1	728	TwoBack_NonTarget
465.556	1.484	V	1	565	TwoBack_Target
467.057	1.483	Z	1	1001	TwoBack_Target
468.557	1.584	V	0	512	TwoBack_Target
470.158	1.483	P	1	679	TwoBack_NonTarget
471.658	1.384	H	1	514	TwoBack_NonTarget
473.059	1.583	P	1	632	TwoBack_Target
474.659	1.583	T	1	1072	TwoBack_NonTarget
476.259	1.984	P	1	642	TwoBack_Target
478.26	1.383	H	1	974	TwoBack_NonTarget
479.66	1.584	H	0	986	TwoBack_NonTarget
481.261	1.683	H	1	500	TwoBack_Target
482.961	1.984	C	1	533	TwoBack_NonTarget
484.962	1.783	D	1	1293	TwoBack_NonTarget
486.762	1.384	J	1	617	TwoBack_NonTarget
488.163	1.683	P	1	675	TwoBack_NonTarget
489.863	1.684	J	1	837	TwoBack_Target
491.564	1.783	+	NA	0	TwoBack_fix
493.364	1.384	D	0	1348	TwoBack_NonTarget
494.765	1.683	Q	1	572	TwoBack_NonTarget
496.465	1.884	D	1	569	TwoBack_Target
498.366	1.883	Q	1	614	TwoBack_Target
500.266	1.984	F	1	599	TwoBack_NonTarget
502.267	1.483	Z	1	712	TwoBack_NonTarget
503.767	1.884	T	1	556	TwoBack_NonTarget
505.668	1.683	Z	1	725	TwoBack_Target
507.368	1.584	M	1	582	TwoBack_NonTarget
508.969	1.583	D	0	0	TwoBack_NonTarget
510.569	1.584	J	0	111	TwoBack_NonTarget
512.17	1.383	D	1	710	TwoBack_Target
513.57	1.784	W	1	638	TwoBack_NonTarget
515.371	1.683	D	1	882	TwoBack_Target
517.071	1.384	+	NA	0	TwoBack_fix
