onset	duration	value	accuracy	response_time	trial_type
6.509	1.7	+	NA	0	ZeroBack_fix
8.226	1.584	M	1	408	ZeroBack_NonTarget
9.827	1.483	X	1	442	ZeroBack_Target
11.327	1.984	N	1	432	ZeroBack_NonTarget
13.328	1.383	V	1	370	ZeroBack_NonTarget
14.728	1.984	F	1	396	ZeroBack_NonTarget
16.729	1.883	D	1	426	ZeroBack_NonTarget
18.629	1.684	X	1	509	ZeroBack_Target
20.33	1.483	W	1	510	ZeroBack_NonTarget
21.83	1.784	N	1	384	ZeroBack_NonTarget
23.631	1.383	X	1	377	ZeroBack_Target
25.031	1.684	Q	1	417	ZeroBack_NonTarget
26.732	1.383	Q	1	412	ZeroBack_NonTarget
28.132	1.384	X	1	502	ZeroBack_Target
29.533	1.983	L	1	490	ZeroBack_NonTarget
31.533	1.384	+	NA	0	ZeroBack_fix
32.934	1.783	F	1	538	ZeroBack_NonTarget
34.734	1.984	Z	1	342	ZeroBack_NonTarget
36.735	1.683	J	1	486	ZeroBack_NonTarget
38.435	1.684	H	1	364	ZeroBack_NonTarget
40.136	1.583	V	1	391	ZeroBack_NonTarget
41.736	1.684	F	1	388	ZeroBack_NonTarget
43.437	1.683	X	1	476	ZeroBack_Target
45.137	1.984	X	1	581	ZeroBack_Target
47.138	1.783	P	1	425	ZeroBack_NonTarget
48.938	1.584	B	1	398	ZeroBack_NonTarget
50.539	1.383	S	1	449	ZeroBack_NonTarget
51.939	1.683	X	1	574	ZeroBack_Target
53.64	1.483	X	1	484	ZeroBack_Target
55.14	1.983	D	1	413	ZeroBack_NonTarget
57.141	1.383	X	0	664	ZeroBack_Target
58.541	1.483	P	1	499	ZeroBack_NonTarget
60.041	1.484	X	1	574	ZeroBack_Target
61.542	1.883	J	1	649	ZeroBack_NonTarget
63.442	1.684	D	1	598	ZeroBack_NonTarget
65.143	1.983	B	1	509	ZeroBack_NonTarget
67.143	1.484	+	NA	0	ZeroBack_fix
68.644	1.683	X	1	558	ZeroBack_Target
70.344	1.684	L	1	459	ZeroBack_NonTarget
72.045	1.883	V	1	472	ZeroBack_NonTarget
73.945	1.984	C	1	521	ZeroBack_NonTarget
75.946	1.783	G	1	374	ZeroBack_NonTarget
77.746	1.584	M	1	371	ZeroBack_NonTarget
79.347	1.683	P	1	410	ZeroBack_NonTarget
81.047	1.384	X	1	445	ZeroBack_Target
82.448	1.583	D	1	571	ZeroBack_NonTarget
84.048	1.484	X	1	426	ZeroBack_Target
85.549	1.383	S	1	384	ZeroBack_NonTarget
86.949	1.884	+	NA	0	ZeroBack_fix
88.85	1.983	J	1	569	ZeroBack_NonTarget
90.85	1.784	X	1	486	ZeroBack_Target
92.651	1.783	B	1	359	ZeroBack_NonTarget
94.451	1.484	X	1	375	ZeroBack_Target
95.952	1.983	R	1	429	ZeroBack_NonTarget
97.952	1.884	R	1	534	ZeroBack_NonTarget
99.853	1.983	+	NA	0	ZeroBack_fix
101.853	1.984	H	1	364	ZeroBack_NonTarget
103.854	1.783	X	1	551	ZeroBack_Target
105.654	1.584	S	1	411	ZeroBack_NonTarget
107.255	1.383	B	1	517	ZeroBack_NonTarget
108.655	1.584	D	1	456	ZeroBack_NonTarget
110.256	1.883	X	1	523	ZeroBack_Target
112.156	1.684	N	1	620	ZeroBack_NonTarget
113.857	1.583	X	1	562	ZeroBack_Target
115.457	1.584	R	1	511	ZeroBack_NonTarget
117.058	1.783	S	1	661	ZeroBack_NonTarget
118.858	1.884	X	1	466	ZeroBack_Target
120.759	1.883	J	1	462	ZeroBack_NonTarget
122.659	1.784	X	1	504	ZeroBack_Target
124.46	1.883	X	1	581	ZeroBack_Target
126.36	1.584	F	1	635	ZeroBack_NonTarget
127.961	1.583	+	NA	0	ZeroBack_fix
129.561	1.384	T	1	448	ZeroBack_NonTarget
130.962	1.383	X	1	568	ZeroBack_Target
132.362	1.484	B	1	512	ZeroBack_NonTarget
133.863	1.483	F	1	530	ZeroBack_NonTarget
135.363	1.783	F	1	413	ZeroBack_NonTarget
137.163	1.884	B	1	430	ZeroBack_NonTarget
139.064	1.383	K	1	406	ZeroBack_NonTarget
140.464	1.584	Q	1	464	ZeroBack_NonTarget
142.065	1.583	T	1	416	ZeroBack_NonTarget
143.665	1.484	X	1	408	ZeroBack_Target
145.166	1.783	X	1	469	ZeroBack_Target
146.966	1.784	W	1	474	ZeroBack_NonTarget
148.767	1.483	+	NA	0	ZeroBack_fix
150.267	1.684	X	1	503	ZeroBack_Target
151.968	1.583	Z	1	450	ZeroBack_NonTarget
153.568	1.884	P	1	373	ZeroBack_NonTarget
155.469	1.783	S	1	418	ZeroBack_NonTarget
157.269	1.684	X	0	451	ZeroBack_Target
158.97	1.883	X	1	500	ZeroBack_Target
160.87	1.984	V	1	475	ZeroBack_NonTarget
162.871	1.483	D	1	448	ZeroBack_NonTarget
164.371	1.784	X	1	481	ZeroBack_Target
166.172	1.683	X	0	402	ZeroBack_Target
167.872	1.784	G	1	356	ZeroBack_NonTarget
169.673	1.583	X	1	366	ZeroBack_Target
171.273	1.884	+	NA	0	ZeroBack_fix
179.159	1.7	+	NA	0	TwoBack_fix
180.876	1.683	V	NA	600	TwoBack_na
182.576	1.784	P	NA	585	TwoBack_na
184.377	1.783	F	1	1280	TwoBack_NonTarget
186.178	1.883	P	0	677	TwoBack_Target
188.078	1.884	H	1	767	TwoBack_NonTarget
189.979	1.583	V	1	698	TwoBack_NonTarget
191.579	1.484	N	1	731	TwoBack_NonTarget
193.079	1.884	V	0	764	TwoBack_Target
194.98	1.884	C	1	842	TwoBack_NonTarget
196.881	1.583	D	1	736	TwoBack_NonTarget
198.481	1.684	N	1	588	TwoBack_NonTarget
200.182	1.583	D	1	822	TwoBack_Target
201.782	1.983	K	1	638	TwoBack_NonTarget
203.783	1.383	P	1	589	TwoBack_NonTarget
205.183	1.483	+	NA	0	TwoBack_fix
206.683	1.384	K	0	528	TwoBack_Target
208.084	1.583	F	1	873	TwoBack_NonTarget
209.684	1.484	Q	1	628	TwoBack_NonTarget
211.185	1.783	F	0	967	TwoBack_Target
212.985	1.784	S	1	676	TwoBack_NonTarget
214.786	1.483	T	1	657	TwoBack_NonTarget
216.286	1.684	D	1	671	TwoBack_NonTarget
217.987	1.683	T	0	993	TwoBack_Target
219.687	1.784	C	1	899	TwoBack_NonTarget
221.488	1.483	M	1	603	TwoBack_NonTarget
222.988	1.584	C	0	830	TwoBack_Target
224.589	1.483	K	1	759	TwoBack_NonTarget
226.089	1.983	S	1	643	TwoBack_NonTarget
228.09	1.683	P	1	672	TwoBack_NonTarget
229.79	1.583	S	0	792	TwoBack_Target
231.39	1.984	W	1	645	TwoBack_NonTarget
233.391	1.984	S	0	780	TwoBack_Target
235.392	1.683	+	NA	0	TwoBack_fix
237.092	1.384	B	1	601	TwoBack_NonTarget
238.493	1.983	Z	1	549	TwoBack_NonTarget
240.493	1.684	B	0	634	TwoBack_Target
242.194	1.683	Z	0	399	TwoBack_Target
243.894	1.384	B	0	500	TwoBack_Target
245.294	1.584	K	1	593	TwoBack_NonTarget
246.895	1.883	L	1	440	TwoBack_NonTarget
248.795	1.784	D	1	752	TwoBack_NonTarget
250.596	1.383	W	1	497	TwoBack_NonTarget
251.996	1.584	D	0	649	TwoBack_Target
253.597	1.883	P	1	471	TwoBack_NonTarget
255.497	1.784	P	1	545	TwoBack_NonTarget
257.298	1.483	P	1	701	TwoBack_Target
258.798	1.784	M	1	463	TwoBack_NonTarget
260.599	1.883	R	1	815	TwoBack_NonTarget
262.499	1.384	H	1	839	TwoBack_NonTarget
263.9	1.483	R	0	980	TwoBack_Target
265.4	1.684	Z	1	796	TwoBack_NonTarget
267.101	1.783	D	1	679	TwoBack_NonTarget
268.901	1.784	G	1	723	TwoBack_NonTarget
270.702	1.983	D	0	869	TwoBack_Target
272.702	1.784	T	1	745	TwoBack_NonTarget
274.503	1.583	Y	1	732	TwoBack_NonTarget
276.103	1.484	T	0	745	TwoBack_Target
277.604	1.883	C	1	634	TwoBack_NonTarget
279.504	1.884	+	NA	0	TwoBack_fix
281.405	1.883	K	1	526	TwoBack_NonTarget
283.305	1.684	D	1	559	TwoBack_NonTarget
285.006	1.383	K	0	538	TwoBack_Target
286.406	1.384	B	1	642	TwoBack_NonTarget
287.807	1.483	V	1	566	TwoBack_NonTarget
289.307	1.684	Z	1	460	TwoBack_NonTarget
291.008	1.983	V	0	710	TwoBack_Target
293.008	1.584	Z	0	483	TwoBack_Target
294.609	1.383	V	0	1048	TwoBack_Target
296.009	1.783	P	1	982	TwoBack_NonTarget
297.81	1.583	H	1	764	TwoBack_NonTarget
299.41	1.983	P	0	817	TwoBack_Target
301.411	1.883	T	1	631	TwoBack_NonTarget
303.311	1.984	P	0	603	TwoBack_Target
305.312	1.383	H	1	634	TwoBack_NonTarget
306.712	1.884	H	0	694	TwoBack_NonTarget
308.613	1.783	H	1	692	TwoBack_Target
310.413	1.784	C	1	544	TwoBack_NonTarget
312.214	1.483	D	1	621	TwoBack_NonTarget
313.714	1.584	J	1	721	TwoBack_NonTarget
315.315	1.383	P	1	706	TwoBack_NonTarget
316.715	1.683	J	0	583	TwoBack_Target
318.415	1.984	+	NA	0	TwoBack_fix
320.416	1.783	D	1	553	TwoBack_NonTarget
322.217	1.983	Q	1	415	TwoBack_NonTarget
324.217	1.484	D	0	579	TwoBack_Target
325.718	1.583	Q	0	768	TwoBack_Target
327.318	1.483	F	1	633	TwoBack_NonTarget
328.818	1.884	Z	1	360	TwoBack_NonTarget
330.719	1.983	T	1	474	TwoBack_NonTarget
332.72	1.683	Z	0	524	TwoBack_Target
334.42	1.383	M	1	512	TwoBack_NonTarget
335.82	1.684	D	1	479	TwoBack_NonTarget
337.521	1.583	J	1	347	TwoBack_NonTarget
339.121	1.984	D	0	627	TwoBack_Target
341.122	1.383	W	1	607	TwoBack_NonTarget
342.522	1.684	D	0	425	TwoBack_Target
344.223	1.583	+	NA	0	TwoBack_fix
351.808	1.8	+	NA	0	OneBack_fix
353.626	1.683	Q	NA	617	OneBack_na
355.326	1.683	C	1	618	OneBack_NonTarget
357.026	1.484	C	0	621	OneBack_Target
358.527	1.983	F	1	748	OneBack_NonTarget
360.527	1.884	T	1	632	OneBack_NonTarget
362.428	1.684	W	1	1205	OneBack_NonTarget
364.129	1.483	H	1	1164	OneBack_NonTarget
365.629	1.583	H	1	1039	OneBack_Target
367.229	1.984	H	1	719	OneBack_Target
369.23	1.883	R	1	761	OneBack_NonTarget
371.131	1.383	+	NA	0	OneBack_fix
372.531	1.583	Q	1	629	OneBack_NonTarget
374.131	1.384	P	1	920	OneBack_NonTarget
375.532	1.783	P	1	933	OneBack_Target
377.332	1.584	K	1	786	OneBack_NonTarget
378.933	1.683	H	1	821	OneBack_NonTarget
380.633	1.584	H	1	710	OneBack_Target
382.234	1.683	+	NA	0	OneBack_fix
383.934	1.884	K	1	1173	OneBack_NonTarget
385.835	1.383	K	1	623	OneBack_Target
387.235	1.884	H	1	634	OneBack_NonTarget
389.136	1.883	W	1	716	OneBack_NonTarget
391.036	1.784	T	1	663	OneBack_NonTarget
392.837	1.483	W	1	932	OneBack_NonTarget
394.337	1.784	W	1	726	OneBack_Target
396.138	1.683	S	1	612	OneBack_NonTarget
397.838	1.584	T	1	531	OneBack_NonTarget
399.439	1.583	+	NA	0	OneBack_fix
401.039	1.784	M	1	801	OneBack_NonTarget
402.84	1.783	M	1	637	OneBack_Target
404.64	1.384	P	1	574	OneBack_NonTarget
406.041	1.583	P	1	818	OneBack_Target
407.641	1.983	G	1	618	OneBack_NonTarget
409.642	1.983	Z	1	551	OneBack_NonTarget
411.642	1.484	V	1	700	OneBack_NonTarget
413.143	1.783	V	1	643	OneBack_Target
414.943	1.884	N	1	498	OneBack_NonTarget
416.844	1.983	B	1	608	OneBack_NonTarget
418.844	1.484	T	1	491	OneBack_NonTarget
420.345	1.383	T	1	809	OneBack_Target
421.745	1.984	D	1	492	OneBack_NonTarget
423.746	1.783	V	1	393	OneBack_NonTarget
425.546	1.884	B	1	525	OneBack_NonTarget
427.447	1.483	B	1	661	OneBack_Target
428.947	1.984	B	1	498	OneBack_Target
430.948	1.383	R	1	367	OneBack_NonTarget
432.348	1.684	D	1	385	OneBack_NonTarget
434.049	1.883	K	1	419	OneBack_NonTarget
435.949	1.584	P	1	527	OneBack_NonTarget
437.55	1.483	P	0	547	OneBack_Target
439.05	1.583	D	1	457	OneBack_NonTarget
440.65	1.884	D	1	530	OneBack_Target
442.551	1.483	D	1	546	OneBack_Target
444.051	1.984	D	1	399	OneBack_Target
446.052	1.983	D	1	520	OneBack_Target
448.053	1.983	F	1	381	OneBack_NonTarget
450.053	1.584	F	1	417	OneBack_Target
451.654	1.583	N	1	460	OneBack_NonTarget
453.254	1.784	+	NA	0	OneBack_fix
455.055	1.383	J	1	470	OneBack_NonTarget
456.455	1.783	Z	1	457	OneBack_NonTarget
458.256	1.683	S	1	342	OneBack_NonTarget
459.956	1.683	S	0	488	OneBack_Target
461.656	1.384	F	1	534	OneBack_NonTarget
463.057	1.683	F	1	652	OneBack_Target
464.757	1.484	N	1	427	OneBack_NonTarget
466.258	1.683	C	1	481	OneBack_NonTarget
467.958	1.484	Z	0	446	OneBack_NonTarget
469.459	1.983	Z	1	646	OneBack_Target
471.459	1.584	K	1	460	OneBack_NonTarget
473.06	1.783	+	NA	0	OneBack_fix
474.86	1.384	K	0	436	OneBack_Target
476.261	1.583	P	1	609	OneBack_NonTarget
477.861	1.384	G	1	563	OneBack_NonTarget
479.262	1.783	R	1	709	OneBack_NonTarget
481.062	1.684	R	1	516	OneBack_Target
482.763	1.383	L	1	446	OneBack_NonTarget
484.163	1.683	M	1	430	OneBack_NonTarget
485.863	1.884	M	0	517	OneBack_Target
487.764	1.983	P	1	463	OneBack_NonTarget
489.765	1.483	H	1	451	OneBack_NonTarget
491.265	1.883	R	1	504	OneBack_NonTarget
493.166	1.883	J	1	667	OneBack_NonTarget
495.066	1.784	R	0	519	OneBack_NonTarget
496.867	1.883	R	1	542	OneBack_Target
498.767	1.384	K	1	455	OneBack_NonTarget
500.168	1.783	H	1	718	OneBack_NonTarget
501.968	1.684	H	1	488	OneBack_Target
503.669	1.483	W	1	619	OneBack_NonTarget
505.169	1.483	W	0	672	OneBack_Target
506.669	1.584	K	1	587	OneBack_NonTarget
508.27	1.683	T	1	684	OneBack_NonTarget
509.97	1.684	T	1	571	OneBack_Target
511.671	1.783	T	1	519	OneBack_Target
513.471	1.384	F	1	500	OneBack_NonTarget
514.872	1.583	V	1	603	OneBack_NonTarget
516.472	1.984	+	NA	0	OneBack_fix
