onset	duration	value	accuracy	response_time	trial_type
6.509	1.4	+	NA	0	ZeroBack_fix
7.926	1.583	M	0	0	ZeroBack_NonTarget
9.526	1.684	X	1	465	ZeroBack_Target
11.227	1.583	N	0	0	ZeroBack_NonTarget
12.827	1.384	V	0	0	ZeroBack_NonTarget
14.228	1.783	F	0	0	ZeroBack_NonTarget
16.028	1.384	D	0	0	ZeroBack_NonTarget
17.429	1.683	X	1	418	ZeroBack_Target
19.129	1.984	W	0	0	ZeroBack_NonTarget
21.13	1.683	N	0	0	ZeroBack_NonTarget
22.83	1.784	X	1	385	ZeroBack_Target
24.631	1.883	Q	0	0	ZeroBack_NonTarget
26.531	1.684	Q	0	0	ZeroBack_NonTarget
28.232	1.683	X	1	398	ZeroBack_Target
29.932	1.984	L	0	0	ZeroBack_NonTarget
31.933	1.783	+	NA	0	ZeroBack_fix
33.733	1.884	F	0	0	ZeroBack_NonTarget
35.634	1.983	Z	0	0	ZeroBack_NonTarget
37.634	1.484	J	0	0	ZeroBack_NonTarget
39.135	1.583	H	0	0	ZeroBack_NonTarget
40.735	1.884	V	0	0	ZeroBack_NonTarget
42.636	1.483	F	0	0	ZeroBack_NonTarget
44.136	1.983	X	1	438	ZeroBack_Target
46.137	1.583	X	1	477	ZeroBack_Target
47.737	1.883	P	0	0	ZeroBack_NonTarget
49.638	1.683	B	0	0	ZeroBack_NonTarget
51.338	1.783	S	0	0	ZeroBack_NonTarget
53.138	1.484	X	1	444	ZeroBack_Target
54.639	1.783	X	1	567	ZeroBack_Target
56.439	1.784	D	0	0	ZeroBack_NonTarget
58.24	1.683	X	1	406	ZeroBack_Target
59.94	1.984	P	0	0	ZeroBack_NonTarget
61.941	1.783	X	1	393	ZeroBack_Target
63.741	1.484	J	0	0	ZeroBack_NonTarget
65.242	1.383	D	0	0	ZeroBack_NonTarget
66.642	1.784	B	0	0	ZeroBack_NonTarget
68.443	1.483	+	NA	0	ZeroBack_fix
69.943	1.684	X	1	486	ZeroBack_Target
71.644	1.483	L	0	0	ZeroBack_NonTarget
73.144	1.883	V	0	0	ZeroBack_NonTarget
75.045	1.883	C	0	0	ZeroBack_NonTarget
76.945	1.484	G	0	0	ZeroBack_NonTarget
78.445	1.884	M	0	0	ZeroBack_NonTarget
80.346	1.383	P	0	0	ZeroBack_NonTarget
81.746	1.384	X	1	523	ZeroBack_Target
83.147	1.683	D	0	0	ZeroBack_NonTarget
84.847	1.584	X	1	454	ZeroBack_Target
86.448	1.683	S	0	0	ZeroBack_NonTarget
88.148	1.584	+	NA	0	ZeroBack_fix
89.749	1.583	J	0	0	ZeroBack_NonTarget
91.349	1.983	X	1	440	ZeroBack_Target
93.35	1.683	B	0	0	ZeroBack_NonTarget
95.05	1.484	X	1	571	ZeroBack_Target
96.55	1.584	R	0	0	ZeroBack_NonTarget
98.151	1.583	R	0	0	ZeroBack_NonTarget
99.751	1.784	+	NA	0	ZeroBack_fix
101.552	1.383	H	0	541	ZeroBack_NonTarget
102.952	1.784	X	1	485	ZeroBack_Target
104.753	1.683	S	0	0	ZeroBack_NonTarget
106.453	1.684	B	0	0	ZeroBack_NonTarget
108.154	1.783	D	0	0	ZeroBack_NonTarget
109.954	1.784	X	1	730	ZeroBack_Target
111.755	1.683	N	0	0	ZeroBack_NonTarget
113.455	1.884	X	1	669	ZeroBack_Target
115.356	1.483	R	0	0	ZeroBack_NonTarget
116.856	1.584	S	0	0	ZeroBack_NonTarget
118.456	1.884	X	1	540	ZeroBack_Target
120.357	1.883	J	0	0	ZeroBack_NonTarget
122.258	1.783	X	1	426	ZeroBack_Target
124.058	1.983	X	1	690	ZeroBack_Target
126.059	1.983	F	0	0	ZeroBack_NonTarget
128.059	1.584	+	NA	0	ZeroBack_fix
129.66	1.383	T	0	0	ZeroBack_NonTarget
131.06	1.983	X	1	536	ZeroBack_Target
133.061	1.683	B	0	0	ZeroBack_NonTarget
134.761	1.383	F	0	0	ZeroBack_NonTarget
136.161	1.984	F	0	0	ZeroBack_NonTarget
138.162	1.983	B	0	0	ZeroBack_NonTarget
140.162	1.584	K	0	0	ZeroBack_NonTarget
141.763	1.483	Q	0	0	ZeroBack_NonTarget
143.263	1.684	T	0	0	ZeroBack_NonTarget
144.964	1.583	X	1	520	ZeroBack_Target
146.564	1.784	X	1	440	ZeroBack_Target
148.365	1.483	W	0	0	ZeroBack_NonTarget
149.865	1.384	+	NA	0	ZeroBack_fix
151.266	1.483	X	1	577	ZeroBack_Target
152.766	1.883	Z	0	0	ZeroBack_NonTarget
154.666	1.984	P	0	0	ZeroBack_NonTarget
156.667	1.383	S	0	0	ZeroBack_NonTarget
158.067	1.384	X	1	544	ZeroBack_Target
159.468	1.483	X	1	511	ZeroBack_Target
160.968	1.584	V	0	0	ZeroBack_NonTarget
162.569	1.583	D	0	0	ZeroBack_NonTarget
164.169	1.884	X	1	458	ZeroBack_Target
166.07	1.983	X	1	717	ZeroBack_Target
168.07	1.384	G	0	0	ZeroBack_NonTarget
169.471	1.783	X	1	572	ZeroBack_Target
171.271	1.884	+	NA	0	ZeroBack_fix
179.157	1.8	+	NA	0	OneBack_fix
180.974	1.683	Q	NA	0	OneBack_na
182.674	1.784	C	0	0	OneBack_NonTarget
184.475	1.383	C	0	0	OneBack_Target
185.875	1.784	F	0	0	OneBack_NonTarget
187.676	1.883	T	0	0	OneBack_NonTarget
189.576	1.584	W	0	0	OneBack_NonTarget
191.177	1.683	H	0	0	OneBack_NonTarget
192.877	1.983	H	0	0	OneBack_Target
194.878	1.483	H	0	0	OneBack_Target
196.378	1.783	R	0	0	OneBack_NonTarget
198.178	1.584	+	NA	0	OneBack_fix
199.779	1.583	Q	0	527	OneBack_NonTarget
201.379	1.384	P	0	0	OneBack_NonTarget
202.78	1.483	P	0	0	OneBack_Target
204.28	1.784	K	0	0	OneBack_NonTarget
206.081	1.583	H	0	0	OneBack_NonTarget
207.681	1.484	H	0	0	OneBack_Target
209.181	1.384	+	NA	0	OneBack_fix
210.582	1.783	K	0	0	OneBack_NonTarget
212.382	1.384	K	0	0	OneBack_Target
213.783	1.683	H	0	0	OneBack_NonTarget
215.483	1.584	W	0	0	OneBack_NonTarget
217.084	1.583	T	0	0	OneBack_NonTarget
218.684	1.484	W	0	0	OneBack_NonTarget
220.185	1.483	W	0	0	OneBack_Target
221.685	1.683	S	0	0	OneBack_NonTarget
223.385	1.584	T	0	0	OneBack_NonTarget
224.986	1.383	+	NA	0	OneBack_fix
226.386	1.984	M	0	0	OneBack_NonTarget
228.387	1.683	M	0	0	OneBack_Target
230.087	1.884	P	0	0	OneBack_NonTarget
231.988	1.583	P	0	0	OneBack_Target
233.588	1.984	G	0	0	OneBack_NonTarget
235.589	1.883	Z	0	0	OneBack_NonTarget
237.489	1.684	V	0	0	OneBack_NonTarget
239.19	1.483	V	0	0	OneBack_Target
240.69	1.584	N	0	0	OneBack_NonTarget
242.291	1.983	B	0	0	OneBack_NonTarget
244.291	1.384	T	0	0	OneBack_NonTarget
245.692	1.783	T	0	0	OneBack_Target
247.492	1.583	D	0	0	OneBack_NonTarget
249.092	1.484	V	0	0	OneBack_NonTarget
250.593	1.383	B	0	0	OneBack_NonTarget
251.993	1.784	B	0	0	OneBack_Target
253.794	1.883	B	0	0	OneBack_Target
255.694	1.784	R	0	0	OneBack_NonTarget
257.495	1.983	D	0	0	OneBack_NonTarget
259.495	1.484	K	0	0	OneBack_NonTarget
260.996	1.583	P	0	0	OneBack_NonTarget
262.596	1.884	P	0	0	OneBack_Target
264.497	1.483	D	0	0	OneBack_NonTarget
265.997	1.784	D	0	0	OneBack_Target
267.798	1.683	D	0	0	OneBack_Target
269.498	1.784	D	0	0	OneBack_Target
271.299	1.983	D	0	0	OneBack_Target
273.299	1.584	F	0	0	OneBack_NonTarget
274.9	1.483	F	0	0	OneBack_Target
276.4	1.783	N	0	0	OneBack_NonTarget
278.2	1.884	+	NA	0	OneBack_fix
280.101	1.683	J	0	0	OneBack_NonTarget
281.801	1.684	Z	0	0	OneBack_NonTarget
283.502	1.883	S	0	0	OneBack_NonTarget
285.402	1.984	S	0	0	OneBack_Target
287.403	1.683	F	0	0	OneBack_NonTarget
289.103	1.484	F	0	0	OneBack_Target
290.604	1.383	N	0	0	OneBack_NonTarget
292.004	1.784	C	0	0	OneBack_NonTarget
293.805	1.383	Z	0	0	OneBack_NonTarget
295.205	1.984	Z	0	0	OneBack_Target
297.206	1.683	K	0	0	OneBack_NonTarget
298.906	1.584	+	NA	0	OneBack_fix
300.507	1.383	K	0	0	OneBack_Target
301.907	1.783	P	0	0	OneBack_NonTarget
303.708	1.983	G	0	0	OneBack_NonTarget
305.708	1.784	R	0	0	OneBack_NonTarget
307.509	1.883	R	0	0	OneBack_Target
309.409	1.684	L	0	0	OneBack_NonTarget
311.11	1.983	M	0	0	OneBack_NonTarget
313.11	1.884	M	0	0	OneBack_Target
315.011	1.383	P	0	0	OneBack_NonTarget
316.411	1.483	H	0	0	OneBack_NonTarget
317.911	1.684	R	0	0	OneBack_NonTarget
319.612	1.483	J	0	0	OneBack_NonTarget
321.112	1.684	R	0	0	OneBack_NonTarget
322.813	1.883	R	0	0	OneBack_Target
324.713	1.884	K	0	0	OneBack_NonTarget
326.614	1.683	H	0	0	OneBack_NonTarget
328.314	1.984	H	0	0	OneBack_Target
330.315	1.383	W	0	0	OneBack_NonTarget
331.715	1.984	W	0	0	OneBack_Target
333.716	1.883	K	0	0	OneBack_NonTarget
335.616	1.384	T	0	0	OneBack_NonTarget
337.017	1.983	T	0	0	OneBack_Target
339.017	1.584	T	0	0	OneBack_Target
340.618	1.583	F	0	0	OneBack_NonTarget
342.218	1.684	V	0	0	OneBack_NonTarget
343.919	1.883	+	NA	0	OneBack_fix
351.804	1.9	+	NA	0	TwoBack_fix
353.721	1.884	V	NA	0	TwoBack_na
355.622	1.783	P	NA	1208	TwoBack_na
357.422	1.584	F	0	792	TwoBack_NonTarget
359.023	1.983	P	0	0	TwoBack_Target
361.023	1.684	H	0	0	TwoBack_NonTarget
362.724	1.683	V	0	0	TwoBack_NonTarget
364.424	1.884	N	0	0	TwoBack_NonTarget
366.325	1.683	V	0	0	TwoBack_Target
368.025	1.484	C	0	0	TwoBack_NonTarget
369.526	1.683	D	0	0	TwoBack_NonTarget
371.226	1.784	N	0	0	TwoBack_NonTarget
373.027	1.983	D	0	0	TwoBack_Target
375.027	1.584	K	0	347	TwoBack_NonTarget
376.628	1.883	P	0	1114	TwoBack_NonTarget
378.528	1.484	+	NA	0	TwoBack_fix
380.029	1.383	K	0	0	TwoBack_Target
381.429	1.383	F	0	289	TwoBack_NonTarget
382.829	1.684	Q	0	0	TwoBack_NonTarget
384.53	1.683	F	1	1156	TwoBack_Target
386.23	1.684	S	0	0	TwoBack_NonTarget
387.931	1.983	T	0	0	TwoBack_NonTarget
389.931	1.784	D	0	0	TwoBack_NonTarget
391.732	1.683	T	0	0	TwoBack_Target
393.432	1.784	C	0	0	TwoBack_NonTarget
395.233	1.483	M	0	0	TwoBack_NonTarget
396.733	1.584	C	1	960	TwoBack_Target
398.334	1.883	K	0	0	TwoBack_NonTarget
400.234	1.784	S	0	235	TwoBack_NonTarget
402.035	1.683	P	0	1026	TwoBack_NonTarget
403.735	1.584	S	0	0	TwoBack_Target
405.336	1.583	W	0	0	TwoBack_NonTarget
406.936	1.583	S	1	933	TwoBack_Target
408.536	1.384	+	NA	0	TwoBack_fix
409.937	1.583	B	0	0	TwoBack_NonTarget
411.537	1.984	Z	0	0	TwoBack_NonTarget
413.538	1.683	B	1	1067	TwoBack_Target
415.238	1.884	Z	0	0	TwoBack_Target
417.139	1.783	B	0	0	TwoBack_Target
418.939	1.884	K	0	0	TwoBack_NonTarget
420.84	1.883	L	0	0	TwoBack_NonTarget
422.74	1.984	D	0	1017	TwoBack_NonTarget
424.741	1.583	W	0	0	TwoBack_NonTarget
426.341	1.384	D	1	896	TwoBack_Target
427.742	1.583	P	0	911	TwoBack_NonTarget
429.342	1.484	P	0	686	TwoBack_NonTarget
430.843	1.483	P	1	769	TwoBack_Target
432.343	1.683	M	0	0	TwoBack_NonTarget
434.043	1.784	R	0	0	TwoBack_NonTarget
435.844	1.483	H	0	0	TwoBack_NonTarget
437.344	1.384	R	1	524	TwoBack_Target
438.745	1.783	Z	0	0	TwoBack_NonTarget
440.545	1.984	D	0	0	TwoBack_NonTarget
442.546	1.883	G	0	10	TwoBack_NonTarget
444.446	1.484	D	0	0	TwoBack_Target
445.947	1.483	T	0	0	TwoBack_NonTarget
447.447	1.984	Y	0	0	TwoBack_NonTarget
449.448	1.383	T	1	716	TwoBack_Target
450.848	1.784	C	0	0	TwoBack_NonTarget
452.649	1.683	+	NA	0	TwoBack_fix
454.349	1.683	K	0	695	TwoBack_NonTarget
456.049	1.884	D	0	0	TwoBack_NonTarget
457.95	1.683	K	1	614	TwoBack_Target
459.65	1.584	B	0	0	TwoBack_NonTarget
461.251	1.483	V	0	0	TwoBack_NonTarget
462.751	1.884	Z	0	0	TwoBack_NonTarget
464.652	1.383	V	1	912	TwoBack_Target
466.052	1.484	Z	0	0	TwoBack_Target
467.553	1.983	V	0	0	TwoBack_Target
469.553	1.984	P	0	706	TwoBack_NonTarget
471.554	1.783	H	0	0	TwoBack_NonTarget
473.354	1.584	P	1	673	TwoBack_Target
474.955	1.983	T	0	0	TwoBack_NonTarget
476.955	1.584	P	1	696	TwoBack_Target
478.556	1.383	H	0	0	TwoBack_NonTarget
479.956	1.984	H	0	0	TwoBack_NonTarget
481.957	1.383	H	1	422	TwoBack_Target
483.357	1.783	C	0	0	TwoBack_NonTarget
485.157	1.784	D	0	0	TwoBack_NonTarget
486.958	1.983	J	0	0	TwoBack_NonTarget
488.959	1.483	P	0	548	TwoBack_NonTarget
490.459	1.383	J	0	0	TwoBack_Target
491.859	1.584	+	NA	0	TwoBack_fix
493.46	1.983	D	0	0	TwoBack_NonTarget
495.46	1.884	Q	0	0	TwoBack_NonTarget
497.361	1.783	D	1	642	TwoBack_Target
499.161	1.684	Q	1	874	TwoBack_Target
500.862	1.783	F	0	0	TwoBack_NonTarget
502.662	1.384	Z	0	0	TwoBack_NonTarget
504.063	1.583	T	0	0	TwoBack_NonTarget
505.663	1.884	Z	0	0	TwoBack_Target
507.564	1.383	M	0	0	TwoBack_NonTarget
508.964	1.484	D	0	0	TwoBack_NonTarget
510.464	1.484	J	0	0	TwoBack_NonTarget
511.965	1.683	D	0	0	TwoBack_Target
513.665	1.584	W	0	0	TwoBack_NonTarget
515.266	1.783	D	0	0	TwoBack_Target
517.066	1.384	+	NA	0	TwoBack_fix
