onset	duration	value	accuracy	response_time	trial_type
6.508	1.401	+	NA	0	OneBack_fix
7.925	1.784	Q	NA	1121	OneBack_na
9.726	1.583	C	0	0	OneBack_NonTarget
11.326	1.884	C	0	74	OneBack_Target
13.227	1.683	F	1	1005	OneBack_NonTarget
14.927	1.484	T	1	881	OneBack_NonTarget
16.428	1.983	W	1	733	OneBack_NonTarget
18.428	1.584	H	1	802	OneBack_NonTarget
20.029	1.683	H	0	715	OneBack_Target
21.729	1.384	H	0	440	OneBack_Target
23.13	1.983	R	1	740	OneBack_NonTarget
25.13	1.684	+	NA	0	OneBack_fix
26.831	1.783	Q	1	650	OneBack_NonTarget
28.631	1.484	P	1	611	OneBack_NonTarget
30.132	1.883	P	0	439	OneBack_Target
32.032	1.684	K	0	0	OneBack_NonTarget
33.733	1.783	H	1	757	OneBack_NonTarget
35.533	1.984	H	0	406	OneBack_Target
37.534	1.583	+	NA	0	OneBack_fix
39.134	1.784	K	1	799	OneBack_NonTarget
40.935	1.783	K	1	582	OneBack_Target
42.735	1.684	H	1	883	OneBack_NonTarget
44.436	1.383	W	1	797	OneBack_NonTarget
45.836	1.784	T	1	876	OneBack_NonTarget
47.637	1.583	W	0	846	OneBack_NonTarget
49.237	1.984	W	1	944	OneBack_Target
51.238	1.383	S	1	456	OneBack_NonTarget
52.638	1.684	T	1	717	OneBack_NonTarget
54.339	1.883	+	NA	0	OneBack_fix
56.239	1.584	M	1	739	OneBack_NonTarget
57.84	1.383	M	1	466	OneBack_Target
59.24	1.583	P	1	525	OneBack_NonTarget
60.84	1.784	P	1	428	OneBack_Target
62.641	1.483	G	1	409	OneBack_NonTarget
64.141	1.584	Z	1	607	OneBack_NonTarget
65.742	1.783	V	1	585	OneBack_NonTarget
67.542	1.784	V	1	505	OneBack_Target
69.343	1.483	N	1	518	OneBack_NonTarget
70.843	1.984	B	1	542	OneBack_NonTarget
72.844	1.683	T	1	555	OneBack_NonTarget
74.544	1.584	T	1	443	OneBack_Target
76.145	1.683	D	1	653	OneBack_NonTarget
77.845	1.984	V	1	467	OneBack_NonTarget
79.846	1.583	B	1	538	OneBack_NonTarget
81.446	1.384	B	1	709	OneBack_Target
82.847	1.883	B	1	675	OneBack_Target
84.747	1.784	R	1	323	OneBack_NonTarget
86.548	1.983	D	1	684	OneBack_NonTarget
88.548	1.984	K	1	474	OneBack_NonTarget
90.549	1.583	P	1	754	OneBack_NonTarget
92.149	1.584	P	1	460	OneBack_Target
93.75	1.983	D	1	745	OneBack_NonTarget
95.75	1.984	D	1	538	OneBack_Target
97.751	1.983	D	0	811	OneBack_Target
99.751	1.384	D	1	710	OneBack_Target
101.152	1.483	D	1	469	OneBack_Target
102.652	1.484	F	1	672	OneBack_NonTarget
104.153	1.383	F	1	600	OneBack_Target
105.553	1.884	N	1	514	OneBack_NonTarget
107.454	1.983	+	NA	0	OneBack_fix
109.454	1.784	J	1	593	OneBack_NonTarget
111.255	1.383	Z	1	663	OneBack_NonTarget
112.655	1.884	S	1	763	OneBack_NonTarget
114.556	1.383	S	1	488	OneBack_Target
115.956	1.583	F	1	634	OneBack_NonTarget
117.556	1.884	F	1	778	OneBack_Target
119.457	1.783	N	1	530	OneBack_NonTarget
121.257	1.484	C	1	548	OneBack_NonTarget
122.758	1.683	Z	1	568	OneBack_NonTarget
124.458	1.784	Z	1	1200	OneBack_Target
126.259	1.583	K	1	644	OneBack_NonTarget
127.859	1.484	+	NA	0	OneBack_fix
129.36	1.683	K	1	681	OneBack_Target
131.06	1.684	P	1	564	OneBack_NonTarget
132.761	1.483	G	1	610	OneBack_NonTarget
134.261	1.484	R	1	600	OneBack_NonTarget
135.762	1.683	R	1	566	OneBack_Target
137.462	1.884	L	1	566	OneBack_NonTarget
139.363	1.483	M	1	514	OneBack_NonTarget
140.863	1.584	M	1	464	OneBack_Target
142.463	1.884	P	1	462	OneBack_NonTarget
144.364	1.384	H	1	561	OneBack_NonTarget
145.764	1.384	R	1	624	OneBack_NonTarget
147.165	1.483	J	1	498	OneBack_NonTarget
148.665	1.484	R	1	537	OneBack_NonTarget
150.166	1.783	R	1	1037	OneBack_Target
151.966	1.884	K	1	670	OneBack_NonTarget
153.867	1.783	H	1	553	OneBack_NonTarget
155.667	1.884	H	1	535	OneBack_Target
157.568	1.583	W	1	560	OneBack_NonTarget
159.168	1.684	W	0	428	OneBack_Target
160.869	1.683	K	1	576	OneBack_NonTarget
162.569	1.684	T	1	611	OneBack_NonTarget
164.27	1.683	T	1	607	OneBack_Target
165.97	1.984	T	1	752	OneBack_Target
167.971	1.883	F	1	645	OneBack_NonTarget
169.871	1.884	V	1	990	OneBack_NonTarget
171.772	1.383	+	NA	0	OneBack_fix
179.157	2	+	NA	0	TwoBack_fix
181.174	1.784	V	NA	594	TwoBack_na
182.975	1.383	P	NA	448	TwoBack_na
184.375	1.884	F	0	0	TwoBack_NonTarget
186.276	1.783	P	0	723	TwoBack_Target
188.076	1.884	H	1	559	TwoBack_NonTarget
189.977	1.783	V	0	782	TwoBack_NonTarget
191.777	1.684	N	1	391	TwoBack_NonTarget
193.478	1.683	V	1	986	TwoBack_Target
195.178	1.384	C	1	769	TwoBack_NonTarget
196.579	1.483	D	1	612	TwoBack_NonTarget
198.079	1.984	N	1	939	TwoBack_NonTarget
200.08	1.983	D	0	640	TwoBack_Target
202.08	1.784	K	1	530	TwoBack_NonTarget
203.881	1.583	P	0	0	TwoBack_NonTarget
205.481	1.884	+	NA	0	TwoBack_fix
207.382	1.883	K	1	1031	TwoBack_Target
209.282	1.884	F	1	742	TwoBack_NonTarget
211.183	1.583	Q	1	671	TwoBack_NonTarget
212.783	1.384	F	1	703	TwoBack_Target
214.184	1.683	S	1	519	TwoBack_NonTarget
215.884	1.384	T	1	494	TwoBack_NonTarget
217.285	1.983	D	1	555	TwoBack_NonTarget
219.285	1.584	T	0	0	TwoBack_Target
220.886	1.783	C	1	684	TwoBack_NonTarget
222.686	1.484	M	1	432	TwoBack_NonTarget
224.187	1.583	C	1	851	TwoBack_Target
225.787	1.484	K	1	489	TwoBack_NonTarget
227.287	1.984	S	1	669	TwoBack_NonTarget
229.288	1.684	P	1	457	TwoBack_NonTarget
230.989	1.583	S	0	543	TwoBack_Target
232.589	1.483	W	1	583	TwoBack_NonTarget
234.089	1.884	S	1	642	TwoBack_Target
235.99	1.583	+	NA	0	TwoBack_fix
237.59	1.384	B	1	569	TwoBack_NonTarget
238.991	1.483	Z	1	584	TwoBack_NonTarget
240.491	1.684	B	1	737	TwoBack_Target
242.192	1.483	Z	0	443	TwoBack_Target
243.692	1.984	B	0	497	TwoBack_Target
245.693	1.683	K	1	673	TwoBack_NonTarget
247.393	1.784	L	1	600	TwoBack_NonTarget
249.194	1.683	D	1	525	TwoBack_NonTarget
250.894	1.384	W	0	582	TwoBack_NonTarget
252.295	1.383	D	0	475	TwoBack_Target
253.695	1.683	P	1	754	TwoBack_NonTarget
255.395	1.484	P	1	457	TwoBack_NonTarget
256.896	1.383	P	0	0	TwoBack_Target
258.296	1.984	M	0	34	TwoBack_NonTarget
260.297	1.983	R	1	526	TwoBack_NonTarget
262.297	1.384	H	1	808	TwoBack_NonTarget
263.698	1.583	R	1	866	TwoBack_Target
265.298	1.984	Z	1	569	TwoBack_NonTarget
267.299	1.583	D	1	615	TwoBack_NonTarget
268.899	1.784	G	1	612	TwoBack_NonTarget
270.7	1.583	D	1	1010	TwoBack_Target
272.3	1.484	T	1	407	TwoBack_NonTarget
273.801	1.683	Y	1	699	TwoBack_NonTarget
275.501	1.684	T	1	895	TwoBack_Target
277.202	1.683	C	1	409	TwoBack_NonTarget
278.902	1.484	+	NA	0	TwoBack_fix
280.403	1.883	K	1	518	TwoBack_NonTarget
282.303	1.984	D	1	555	TwoBack_NonTarget
284.304	1.783	K	1	537	TwoBack_Target
286.104	1.784	B	1	694	TwoBack_NonTarget
287.905	1.783	V	1	1027	TwoBack_NonTarget
289.705	1.384	Z	1	795	TwoBack_NonTarget
291.106	1.583	V	1	592	TwoBack_Target
292.706	1.883	Z	0	399	TwoBack_Target
294.607	1.883	V	0	1300	TwoBack_Target
296.507	1.684	P	1	601	TwoBack_NonTarget
298.208	1.583	H	1	1009	TwoBack_NonTarget
299.808	1.383	P	1	676	TwoBack_Target
301.208	1.784	T	1	471	TwoBack_NonTarget
303.009	1.783	P	0	536	TwoBack_Target
304.809	1.784	H	1	506	TwoBack_NonTarget
306.61	1.683	H	0	558	TwoBack_NonTarget
308.31	1.584	H	0	0	TwoBack_Target
309.911	1.383	C	1	865	TwoBack_NonTarget
311.311	1.984	D	1	668	TwoBack_NonTarget
313.312	1.683	J	1	570	TwoBack_NonTarget
315.012	1.584	P	1	797	TwoBack_NonTarget
316.613	1.583	J	0	1329	TwoBack_Target
318.213	1.784	+	NA	0	TwoBack_fix
320.014	1.683	D	1	539	TwoBack_NonTarget
321.714	1.884	Q	1	599	TwoBack_NonTarget
323.615	1.483	D	1	605	TwoBack_Target
325.115	1.884	Q	1	1056	TwoBack_Target
327.016	1.783	F	1	529	TwoBack_NonTarget
328.816	1.484	Z	1	598	TwoBack_NonTarget
330.317	1.883	T	1	529	TwoBack_NonTarget
332.217	1.484	Z	1	727	TwoBack_Target
333.718	1.383	M	1	701	TwoBack_NonTarget
335.118	1.883	D	1	957	TwoBack_NonTarget
337.019	1.983	J	1	499	TwoBack_NonTarget
339.019	1.984	D	1	771	TwoBack_Target
341.02	1.583	W	1	505	TwoBack_NonTarget
342.62	1.484	D	0	622	TwoBack_Target
344.121	1.683	+	NA	0	TwoBack_fix
351.806	1.4	+	NA	0	ZeroBack_fix
353.223	1.584	M	1	568	ZeroBack_NonTarget
354.824	1.783	X	1	519	ZeroBack_Target
356.624	1.484	N	1	470	ZeroBack_NonTarget
358.124	1.384	V	0	594	ZeroBack_NonTarget
359.525	1.883	F	1	437	ZeroBack_NonTarget
361.425	1.784	D	1	984	ZeroBack_NonTarget
363.226	1.683	X	1	660	ZeroBack_Target
364.926	1.384	W	1	437	ZeroBack_NonTarget
366.327	1.983	N	1	473	ZeroBack_NonTarget
368.327	1.984	X	1	698	ZeroBack_Target
370.328	1.983	Q	1	457	ZeroBack_NonTarget
372.328	1.884	Q	1	357	ZeroBack_NonTarget
374.229	1.883	X	1	453	ZeroBack_Target
376.13	1.783	L	1	656	ZeroBack_NonTarget
377.93	1.384	+	NA	0	ZeroBack_fix
379.33	1.984	F	1	565	ZeroBack_NonTarget
381.331	1.784	Z	1	842	ZeroBack_NonTarget
383.132	1.583	J	1	530	ZeroBack_NonTarget
384.732	1.983	H	0	664	ZeroBack_NonTarget
386.733	1.883	V	1	446	ZeroBack_NonTarget
388.633	1.884	F	1	521	ZeroBack_NonTarget
390.534	1.883	X	1	639	ZeroBack_Target
392.434	1.384	X	1	603	ZeroBack_Target
393.835	1.883	P	1	591	ZeroBack_NonTarget
395.735	1.384	B	1	566	ZeroBack_NonTarget
397.136	1.683	S	1	550	ZeroBack_NonTarget
398.836	1.683	X	1	642	ZeroBack_Target
400.536	1.584	X	1	514	ZeroBack_Target
402.137	1.583	D	1	577	ZeroBack_NonTarget
403.737	1.584	X	1	652	ZeroBack_Target
405.338	1.783	P	1	587	ZeroBack_NonTarget
407.138	1.784	X	1	724	ZeroBack_Target
408.939	1.683	J	1	444	ZeroBack_NonTarget
410.639	1.484	D	1	704	ZeroBack_NonTarget
412.14	1.683	B	1	579	ZeroBack_NonTarget
413.84	1.484	+	NA	0	ZeroBack_fix
415.341	1.483	X	1	528	ZeroBack_Target
416.841	1.984	L	1	624	ZeroBack_NonTarget
418.842	1.483	V	1	669	ZeroBack_NonTarget
420.342	1.384	C	1	646	ZeroBack_NonTarget
421.742	1.684	G	1	597	ZeroBack_NonTarget
423.443	1.383	M	1	664	ZeroBack_NonTarget
424.843	1.784	P	1	500	ZeroBack_NonTarget
426.644	1.783	X	1	502	ZeroBack_Target
428.444	1.384	D	1	727	ZeroBack_NonTarget
429.845	1.483	X	1	587	ZeroBack_Target
431.345	1.584	S	1	704	ZeroBack_NonTarget
432.946	1.583	+	NA	0	ZeroBack_fix
434.546	1.584	J	1	612	ZeroBack_NonTarget
436.147	1.683	X	1	673	ZeroBack_Target
437.847	1.383	B	1	598	ZeroBack_NonTarget
439.247	1.684	X	1	712	ZeroBack_Target
440.948	1.883	R	1	452	ZeroBack_NonTarget
442.848	1.784	R	1	528	ZeroBack_NonTarget
444.649	1.683	+	NA	0	ZeroBack_fix
446.349	1.684	H	1	465	ZeroBack_NonTarget
448.05	1.983	X	1	613	ZeroBack_Target
450.05	1.684	S	1	451	ZeroBack_NonTarget
451.751	1.883	B	1	470	ZeroBack_NonTarget
453.651	1.484	D	1	401	ZeroBack_NonTarget
455.152	1.983	X	1	667	ZeroBack_Target
457.152	1.784	N	1	519	ZeroBack_NonTarget
458.953	1.783	X	1	668	ZeroBack_Target
460.753	1.584	R	1	458	ZeroBack_NonTarget
462.354	1.383	S	1	506	ZeroBack_NonTarget
463.754	1.684	X	1	568	ZeroBack_Target
465.455	1.883	J	1	584	ZeroBack_NonTarget
467.355	1.884	X	1	927	ZeroBack_Target
469.256	1.783	X	1	616	ZeroBack_Target
471.056	1.684	F	1	488	ZeroBack_NonTarget
472.757	1.583	+	NA	0	ZeroBack_fix
474.357	1.484	T	1	603	ZeroBack_NonTarget
475.858	1.683	X	1	670	ZeroBack_Target
477.558	1.584	B	1	570	ZeroBack_NonTarget
479.159	1.683	F	1	426	ZeroBack_NonTarget
480.859	1.984	F	1	501	ZeroBack_NonTarget
482.86	1.783	B	1	529	ZeroBack_NonTarget
484.66	1.484	K	1	742	ZeroBack_NonTarget
486.161	1.783	Q	1	562	ZeroBack_NonTarget
487.961	1.484	T	1	487	ZeroBack_NonTarget
489.462	1.483	X	1	683	ZeroBack_Target
490.962	1.984	X	1	573	ZeroBack_Target
492.963	1.483	W	1	764	ZeroBack_NonTarget
494.463	1.583	+	NA	0	ZeroBack_fix
496.063	1.584	X	1	708	ZeroBack_Target
497.664	1.483	Z	1	636	ZeroBack_NonTarget
499.164	1.984	P	1	440	ZeroBack_NonTarget
501.165	1.983	S	1	497	ZeroBack_NonTarget
503.165	1.684	X	1	586	ZeroBack_Target
504.866	1.583	X	1	501	ZeroBack_Target
506.466	1.884	V	1	714	ZeroBack_NonTarget
508.367	1.383	D	1	421	ZeroBack_NonTarget
509.767	1.584	X	1	666	ZeroBack_Target
511.368	1.383	X	1	707	ZeroBack_Target
512.768	1.884	G	1	541	ZeroBack_NonTarget
514.669	1.783	X	1	589	ZeroBack_Target
516.469	1.984	+	NA	0	ZeroBack_fix
