onset	duration	value	accuracy	response_time	trial_type
4.001	1.798	X	1	628	first_go
5.901	1.198	X	1	721	first_go
7.202	1.597	T	1	0	first_nogo
8.902	1.597	X	1	471	first_go
10.602	1.797	X	1	538	first_go
12.503	1.596	X	1	572	first_go
14.203	1.796	+	NA	0	first_fix
16.104	1.695	X	1	436	first_go
17.905	1.694	X	1	456	first_go
19.705	1.594	E	1	0	first_nogo
21.406	1.293	X	1	312	first_go
22.806	1.493	X	1	371	first_go
24.406	1.193	S	1	0	first_nogo
25.707	1.392	X	1	391	first_go
27.207	1.192	D	1	0	first_nogo
28.508	1.491	X	1	322	first_go
30.108	1.491	Q	1	0	first_nogo
31.708	1.491	X	1	359	first_go
33.309	1.59	X	1	412	first_go
35.009	1.69	X	1	327	first_go
36.81	1.389	X	1	262	first_go
38.31	1.289	X	1	376	first_go
39.711	1.588	X	1	296	first_go
41.411	1.288	X	1	253	first_go
42.812	1.487	X	1	253	first_go
44.412	1.187	X	1	316	first_go
45.712	1.387	X	1	368	first_go
47.198	1.801	X	1	256	first_go
49.098	1.501	T	0	287	first_nogo
50.698	1.701	X	0	437	first_go
52.498	1.301	X	1	399	first_go
53.898	1.401	+	NA	0	first_fix
55.398	1.201	X	1	442	first_go
56.699	1.8	X	1	384	first_go
58.599	1.5	X	1	357	first_go
60.2	1.299	X	1	334	first_go
61.6	1.299	L	1	0	first_nogo
63.001	1.198	X	1	349	first_go
64.301	1.698	X	1	374	first_go
66.102	1.497	+	NA	0	first_fix
67.702	1.597	X	1	362	first_go
69.402	1.397	X	1	338	first_go
70.903	1.796	H	1	0	first_nogo
72.803	1.596	A	1	0	first_nogo
74.504	1.595	X	1	388	first_go
76.204	1.795	X	1	464	first_go
78.105	1.594	O	1	0	first_nogo
79.805	1.294	X	1	388	first_go
81.206	1.393	+	NA	0	first_fix
82.706	1.793	X	1	356	first_go
84.607	1.192	X	1	399	first_go
85.907	1.692	X	1	441	first_go
87.708	1.791	X	1	309	first_go
89.608	1.291	X	1	306	first_go
91.009	1.29	X	1	318	first_go
92.409	1.29	X	1	338	first_go
93.809	1.59	X	1	294	first_go
95.51	1.589	X	1	323	first_go
97.21	1.289	X	1	310	first_go
98.611	1.288	G	1	0	first_nogo
100.011	1.688	X	1	273	first_go
101.812	1.187	X	1	320	first_go
103.112	1.387	J	1	0	first_nogo
104.612	1.687	X	1	358	first_go
106.398	1.501	X	1	418	first_go
107.998	1.601	I	1	0	first_nogo
109.698	1.701	C	1	0	first_nogo
111.498	1.401	X	1	287	first_go
112.998	1.601	X	1	334	first_go
114.699	1.6	+	NA	0	first_fix
116.399	1.7	X	1	324	first_go
118.2	1.399	X	1	366	first_go
119.7	1.399	A	1	0	first_nogo
121.2	1.599	X	1	321	first_go
122.901	1.798	X	1	425	first_go
124.801	1.698	S	1	0	first_nogo
126.602	1.297	P	1	0	first_nogo
128.002	1.797	X	1	381	first_go
129.903	1.796	X	1	335	first_go
131.803	1.496	X	1	332	first_go
133.404	1.295	P	1	0	first_nogo
134.804	1.495	X	1	372	first_go
136.405	1.794	X	1	448	first_go
138.305	1.794	X	1	455	first_go
140.206	1.693	C	1	0	first_nogo
142.006	1.693	X	1	258	first_go
143.807	1.792	X	1	383	first_go
145.707	1.292	F	1	0	first_nogo
147.108	1.491	X	1	386	first_go
148.708	1.691	X	1	394	first_go
150.509	1.19	X	1	415	first_go
151.809	1.69	N	1	0	first_nogo
153.61	1.389	X	1	274	first_go
155.11	1.589	X	1	402	first_go
156.811	1.188	X	1	373	first_go
158.111	1.688	X	1	337	first_go
159.911	1.688	X	1	387	first_go
161.712	1.587	M	1	0	first_nogo
163.412	1.487	X	1	360	first_go
164.998	1.501	X	1	413	first_go
166.598	1.401	X	1	355	first_go
168.098	1.201	B	1	0	first_nogo
169.398	1.501	X	1	329	first_go
170.998	1.401	X	1	376	first_go
172.498	1.801	U	1	0	first_nogo
174.399	1.5	X	1	298	first_go
175.999	1.6	X	1	364	first_go
177.7	1.499	X	1	381	first_go
179.3	1.299	X	1	435	first_go
180.701	1.198	X	1	349	first_go
182.001	1.398	X	1	393	first_go
183.501	1.198	X	1	369	first_go
184.802	1.597	X	1	270	first_go
186.502	1.597	X	1	315	first_go
188.203	1.596	X	1	433	first_go
189.903	1.496	X	1	336	first_go
191.504	1.295	Q	1	0	first_nogo
192.904	1.295	H	1	0	first_nogo
194.304	1.795	G	1	0	first_nogo
196.205	1.394	X	1	348	first_go
197.705	1.694	X	1	484	first_go
199.506	1.793	X	1	383	first_go
201.406	1.493	X	1	262	first_go
203.007	1.292	X	1	263	first_go
204.407	1.292	R	1	0	first_nogo
205.808	1.791	X	1	326	first_go
207.708	1.591	+	NA	0	first_fix
209.409	1.59	R	1	0	first_nogo
211.109	1.69	X	1	313	first_go
212.91	1.689	N	1	0	first_nogo
214.71	1.189	B	1	0	first_nogo
216.011	1.788	X	1	578	first_go
217.911	1.688	X	1	631	first_go
219.712	1.587	F	1	0	first_nogo
221.412	1.187	X	1	284	first_go
222.712	1.787	X	1	439	first_go
224.598	1.701	X	1	397	first_go
226.398	1.501	U	1	0	first_nogo
227.998	1.201	+	NA	0	first_fix
229.298	1.701	X	1	271	first_go
231.098	1.301	X	1	356	first_go
232.499	1.8	X	1	430	first_go
234.399	1.4	L	1	0	first_nogo
235.9	1.599	X	1	271	first_go
237.6	1.599	+	NA	0	first_fix
239.301	1.798	+	NA	0	first_fix
241.201	1.698	X	1	344	first_go
243.002	1.197	X	1	417	first_go
244.302	1.197	O	1	0	first_nogo
245.602	1.597	X	1	419	first_go
247.303	1.496	+	NA	0	first_fix
248.903	1.296	E	1	0	first_nogo
250.304	1.695	I	1	0	first_nogo
252.104	1.195	+	NA	0	first_fix
253.404	1.195	X	1	299	first_go
254.705	1.694	X	1	391	first_go
256.505	1.394	M	1	0	first_nogo
258.006	1.693	X	1	464	first_go
259.806	1.393	D	1	0	first_nogo
261.307	1.292	X	1	281	first_go
262.707	1.392	X	1	323	first_go
264.208	1.791	X	1	287	first_go
266.108	1.791	X	1	372	first_go
268.009	1.49	X	1	416	first_go
269.609	1.39	X	1	334	first_go
271.109	1.39	X	1	256	first_go
272.61	1.189	X	1	260	first_go
273.91	1.389	X	1	376	first_go
275.411	1.588	J	1	0	first_nogo
277.111	1.188	X	1	275	first_go
278.412	1.787	X	1	387	first_go
280.312	1.287	+	NA	0	first_fix
281.713	1.186	X	1	365	second_go
282.998	1.401	M	1	0	second_nogo
284.498	1.401	X	1	304	second_go
285.998	1.601	T	1	0	second_nogo
287.698	1.201	X	1	338	second_go
288.998	1.401	C	1	0	second_nogo
290.498	1.401	X	1	293	second_go
291.999	1.3	X	1	368	second_go
293.399	1.7	H	1	0	second_nogo
295.2	1.299	A	1	0	second_nogo
296.6	1.599	S	1	0	second_nogo
298.301	1.598	U	1	0	second_nogo
300.001	1.398	J	1	0	second_nogo
301.501	1.398	X	1	410	second_go
303.002	1.297	M	1	0	second_nogo
304.402	1.297	X	1	485	second_go
305.803	1.396	O	1	0	second_nogo
307.303	1.496	X	1	346	second_go
308.904	1.695	J	1	0	second_nogo
310.704	1.795	P	1	0	second_nogo
312.605	1.394	P	1	0	second_nogo
314.105	1.794	N	1	0	second_nogo
316.006	1.393	X	1	349	second_go
317.506	1.493	X	1	464	second_go
319.106	1.793	X	1	364	second_go
321.007	1.492	X	1	313	second_go
322.607	1.492	B	1	0	second_nogo
324.208	1.191	P	1	0	second_nogo
325.508	1.491	+	NA	0	second_fix
327.109	1.79	L	1	0	second_nogo
329.009	1.59	N	1	0	second_nogo
330.71	1.589	X	1	373	second_go
332.41	1.189	X	1	351	second_go
333.711	1.188	F	1	0	second_nogo
335.011	1.688	R	1	0	second_nogo
336.811	1.688	S	1	0	second_nogo
338.612	1.687	B	1	0	second_nogo
340.412	1.287	+	NA	0	second_fix
341.798	1.501	J	1	0	second_nogo
343.398	1.301	X	1	342	second_go
344.798	1.501	G	1	0	second_nogo
346.398	1.301	I	1	0	second_nogo
347.798	1.801	Q	1	0	second_nogo
349.698	1.301	F	1	0	second_nogo
351.099	1.6	U	1	0	second_nogo
352.799	1.2	Q	1	0	second_nogo
354.1	1.799	D	1	0	second_nogo
356	1.499	E	1	0	second_nogo
357.601	1.398	+	NA	0	second_fix
359.101	1.198	C	1	0	second_nogo
360.401	1.798	O	1	0	second_nogo
362.302	1.797	+	NA	0	second_fix
364.202	1.597	M	1	0	second_nogo
365.903	1.296	X	1	420	second_go
367.303	1.496	I	1	0	second_nogo
368.904	1.495	C	1	0	second_nogo
370.504	1.395	G	1	0	second_nogo
372.005	1.494	O	1	0	second_nogo
373.605	1.794	X	1	335	second_go
375.506	1.693	X	1	404	second_go
377.306	1.393	X	1	282	second_go
378.807	1.392	N	1	0	second_nogo
380.307	1.392	D	1	0	second_nogo
381.807	1.492	E	1	0	second_nogo
383.408	1.191	I	1	0	second_nogo
384.708	1.491	Q	1	0	second_nogo
386.309	1.39	H	1	0	second_nogo
387.809	1.29	R	1	0	second_nogo
389.21	1.489	U	1	0	second_nogo
390.81	1.489	H	1	0	second_nogo
392.41	1.189	+	NA	0	second_fix
393.711	1.588	X	1	405	second_go
395.411	1.188	R	1	0	second_nogo
396.712	1.487	F	1	0	second_nogo
398.312	1.487	L	1	0	second_nogo
399.913	1.786	A	1	0	second_nogo
401.798	1.701	E	1	0	second_nogo
403.598	1.701	G	1	0	second_nogo
405.398	1.501	T	1	0	second_nogo
406.998	1.201	D	1	0	second_nogo
408.298	1.701	B	1	0	second_nogo
410.099	1.3	T	1	0	second_nogo
411.499	1.2	A	1	0	second_nogo
412.8	1.199	+	NA	0	second_fix
414.1	1.199	S	1	0	second_nogo
415.4	1.299	L	1	0	second_nogo
