onset	duration	value	accuracy	response_time	trial_type
4.002	1.297	X	1	469	first_go
5.403	1.596	X	1	380	first_go
7.103	1.296	X	1	344	first_go
8.504	1.495	X	1	367	first_go
10.104	1.395	I	0	527	first_nogo
11.605	1.594	J	0	426	first_nogo
13.305	1.794	X	1	494	first_go
15.206	1.293	X	1	473	first_go
16.606	1.293	N	0	441	first_nogo
18.006	1.793	X	1	457	first_go
19.907	1.692	X	1	444	first_go
21.707	1.492	X	1	412	first_go
23.308	1.491	X	1	395	first_go
24.908	1.391	X	1	379	first_go
26.409	1.69	X	1	350	first_go
28.209	1.39	R	0	566	first_nogo
29.71	1.589	X	0	385	first_go
31.41	1.189	X	1	637	first_go
32.711	1.588	X	1	368	first_go
34.411	1.488	X	1	412	first_go
36.012	1.487	G	0	603	first_nogo
37.612	1.687	X	1	547	first_go
39.413	1.786	X	1	602	first_go
41.298	1.501	X	1	437	first_go
42.898	1.401	X	1	485	first_go
44.398	1.701	X	1	417	first_go
46.198	1.401	X	1	457	first_go
47.698	1.301	X	1	421	first_go
49.099	1.5	X	1	572	first_go
50.699	1.7	S	0	812	first_nogo
52.5	1.299	U	0	475	first_nogo
53.9	1.799	X	1	491	first_go
55.801	1.198	X	1	470	first_go
57.101	1.198	X	1	458	first_go
58.401	1.298	E	0	526	first_nogo
59.802	1.697	H	0	677	first_nogo
61.602	1.197	X	1	740	first_go
62.903	1.296	D	0	559	first_nogo
64.303	1.796	C	0	647	first_nogo
66.204	1.795	X	1	522	first_go
68.104	1.395	X	1	583	first_go
69.605	1.294	X	1	513	first_go
71.005	1.594	L	0	481	first_nogo
72.705	1.394	X	1	533	first_go
74.206	1.293	H	0	984	first_nogo
75.606	1.693	X	1	488	first_go
77.407	1.792	X	1	735	first_go
79.307	1.792	T	0	539	first_nogo
81.208	1.391	X	1	446	first_go
82.708	1.191	I	0	530	first_nogo
84.009	1.69	X	1	517	first_go
85.809	1.59	X	1	669	first_go
87.51	1.689	X	1	472	first_go
89.31	1.689	B	0	480	first_nogo
91.111	1.288	Q	0	591	first_nogo
92.511	1.388	X	1	479	first_go
94.012	1.187	X	1	578	first_go
95.312	1.787	J	0	622	first_nogo
97.213	1.686	X	1	457	first_go
98.998	1.301	X	1	456	first_go
100.398	1.801	X	1	544	first_go
102.298	1.701	X	1	372	first_go
104.098	1.601	X	1	404	first_go
105.798	1.401	E	0	544	first_nogo
107.299	1.6	L	0	571	first_nogo
108.999	1.6	+	NA	0	first_fix
110.7	1.299	P	0	802	first_nogo
112.1	1.299	X	1	490	first_go
113.501	1.198	X	1	537	first_go
114.801	1.398	+	NA	0	first_fix
116.301	1.798	+	NA	0	first_fix
118.202	1.797	X	1	724	first_go
120.102	1.197	X	1	392	first_go
121.403	1.696	A	0	435	first_nogo
123.203	1.296	X	1	571	first_go
124.604	1.595	X	1	570	first_go
126.304	1.195	+	NA	0	first_fix
127.605	1.194	X	1	1025	first_go
128.905	1.794	X	1	893	first_go
130.805	1.694	+	NA	0	first_fix
132.606	1.393	X	1	744	first_go
134.106	1.793	B	0	579	first_nogo
136.007	1.392	X	1	486	first_go
137.507	1.192	F	0	907	first_nogo
138.808	1.591	X	1	621	first_go
140.508	1.491	X	1	578	first_go
142.109	1.59	X	1	441	first_go
143.809	1.49	N	0	772	first_nogo
145.41	1.589	X	1	683	first_go
147.11	1.689	X	1	351	first_go
148.911	1.488	X	1	382	first_go
150.511	1.688	X	1	510	first_go
152.312	1.687	X	1	437	first_go
154.112	1.487	X	1	405	first_go
155.713	1.686	X	1	372	first_go
157.498	1.601	X	1	379	first_go
159.198	1.501	X	1	327	first_go
160.798	1.601	X	1	359	first_go
162.498	1.601	X	1	347	first_go
164.198	1.801	X	1	367	first_go
166.099	1.7	X	1	322	first_go
167.899	1.5	X	1	330	first_go
169.5	1.299	P	0	505	first_nogo
170.9	1.599	S	0	465	first_nogo
172.601	1.798	X	1	604	first_go
174.501	1.298	X	1	440	first_go
175.902	1.397	X	1	423	first_go
177.402	1.397	X	1	347	first_go
178.903	1.396	X	1	406	first_go
180.403	1.596	X	1	410	first_go
182.104	1.295	T	0	901	first_nogo
183.504	1.695	X	1	421	first_go
185.304	1.395	X	1	485	first_go
186.805	1.394	X	1	448	first_go
188.305	1.194	X	1	484	first_go
189.606	1.593	X	1	447	first_go
191.306	1.193	M	0	491	first_nogo
192.607	1.292	Q	0	446	first_nogo
194.007	1.192	X	1	518	first_go
195.307	1.692	X	1	426	first_go
197.108	1.291	X	1	513	first_go
198.508	1.191	X	1	529	first_go
199.809	1.79	+	NA	0	first_fix
201.709	1.19	X	1	536	first_go
203.01	1.489	+	NA	0	first_fix
204.61	1.589	X	1	643	first_go
206.311	1.388	X	1	582	first_go
207.811	1.788	X	1	441	first_go
209.711	1.588	X	1	462	first_go
211.412	1.687	X	1	457	first_go
213.213	1.386	X	1	464	first_go
214.698	1.301	X	1	362	first_go
216.098	1.401	X	1	546	first_go
217.598	1.801	X	1	382	first_go
219.498	1.501	X	1	442	first_go
221.098	1.501	X	1	698	first_go
222.699	1.8	X	1	449	first_go
224.599	1.4	X	1	421	first_go
226.1	1.399	X	1	360	first_go
227.6	1.199	X	1	348	first_go
228.9	1.499	O	0	696	first_nogo
230.501	1.298	X	1	463	first_go
231.901	1.398	+	NA	0	first_fix
233.402	1.197	X	1	450	first_go
234.702	1.197	+	NA	0	first_fix
236.002	1.497	M	0	474	first_nogo
237.603	1.396	X	1	385	first_go
239.103	1.796	X	1	533	first_go
241.004	1.695	X	1	488	first_go
242.804	1.295	D	0	608	first_nogo
244.205	1.294	X	1	575	first_go
245.605	1.694	X	1	359	first_go
247.406	1.793	X	1	358	first_go
249.306	1.193	+	NA	0	first_fix
250.607	1.492	C	0	501	first_nogo
252.207	1.592	X	1	509	first_go
253.908	1.491	F	0	592	first_nogo
255.508	1.191	R	0	392	first_nogo
256.808	1.791	X	1	436	first_go
258.709	1.39	G	0	719	first_nogo
260.209	1.79	O	0	707	first_nogo
262.11	1.589	X	1	758	first_go
263.81	1.189	X	1	410	first_go
265.111	1.388	U	0	581	first_nogo
266.611	1.488	+	NA	0	first_fix
268.212	1.287	X	1	744	first_go
269.612	1.587	X	1	432	first_go
271.313	1.686	X	1	363	first_go
273.098	1.201	X	1	482	first_go
274.398	1.601	A	0	678	first_nogo
276.098	1.701	+	NA	0	first_fix
277.898	1.701	X	1	586	first_go
279.698	1.301	O	0	402	second_nogo
281.099	1.5	U	0	801	second_nogo
282.699	1.5	S	0	496	second_nogo
284.3	1.399	G	0	399	second_nogo
285.8	1.299	R	0	819	second_nogo
287.2	1.399	X	1	572	second_go
288.701	1.798	O	0	422	second_nogo
290.601	1.598	I	0	538	second_nogo
292.302	1.397	X	1	557	second_go
293.802	1.597	L	0	441	second_nogo
295.503	1.296	P	0	444	second_nogo
296.903	1.196	P	0	372	second_nogo
298.204	1.595	D	0	423	second_nogo
299.904	1.395	X	1	459	second_go
301.405	1.694	X	1	438	second_go
303.205	1.594	X	1	350	second_go
304.906	1.493	+	NA	0	second_fix
306.506	1.493	N	0	585	second_nogo
308.106	1.193	X	1	441	second_go
309.407	1.592	X	1	548	second_go
311.107	1.692	+	NA	0	second_fix
312.908	1.191	+	NA	0	second_fix
314.208	1.291	T	0	523	second_nogo
315.609	1.69	X	1	882	second_go
317.409	1.39	G	0	514	second_nogo
318.91	1.189	F	0	805	second_nogo
320.21	1.789	+	NA	0	second_fix
322.11	1.689	T	0	781	second_nogo
323.911	1.288	Q	0	548	second_nogo
325.311	1.188	F	0	428	second_nogo
326.612	1.787	D	0	463	second_nogo
328.512	1.387	L	0	547	second_nogo
330.013	1.486	F	0	574	second_nogo
331.598	1.601	X	1	557	second_go
333.298	1.201	G	0	521	second_nogo
334.598	1.301	Q	0	470	second_nogo
335.998	1.601	X	1	341	second_go
337.698	1.701	J	0	449	second_nogo
339.499	1.4	B	0	504	second_nogo
340.999	1.7	E	0	452	second_nogo
342.8	1.299	J	0	427	second_nogo
344.2	1.199	H	0	547	second_nogo
345.501	1.398	X	1	734	second_go
347.001	1.198	X	1	434	second_go
348.301	1.798	X	1	510	second_go
350.202	1.197	+	NA	0	second_fix
351.502	1.497	C	0	501	second_nogo
353.103	1.496	B	0	427	second_nogo
354.703	1.296	M	0	787	second_nogo
356.104	1.495	J	0	490	second_nogo
357.704	1.495	C	0	370	second_nogo
359.304	1.795	B	0	370	second_nogo
361.205	1.194	L	0	429	second_nogo
362.505	1.794	M	0	761	second_nogo
364.406	1.293	U	0	436	second_nogo
365.806	1.793	A	0	396	second_nogo
367.707	1.492	R	0	439	second_nogo
369.307	1.292	S	0	407	second_nogo
370.708	1.491	T	0	462	second_nogo
372.308	1.691	R	0	574	second_nogo
374.109	1.29	U	0	445	second_nogo
375.509	1.49	X	0	413	second_go
377.11	1.189	X	1	300	second_go
378.41	1.489	X	1	424	second_go
380.01	1.489	I	0	488	second_nogo
381.611	1.788	X	1	503	second_go
383.511	1.588	+	NA	0	second_fix
385.212	1.387	E	0	534	second_nogo
386.712	1.587	X	1	370	second_go
388.398	1.801	H	0	452	second_nogo
390.298	1.201	N	0	584	second_nogo
391.598	1.601	N	0	780	second_nogo
393.298	1.801	O	0	472	second_nogo
395.198	1.801	I	0	756	second_nogo
397.099	1.5	E	0	479	second_nogo
398.699	1.5	A	0	543	second_nogo
400.3	1.499	S	0	406	second_nogo
401.9	1.799	C	0	470	second_nogo
403.801	1.498	M	1	0	second_nogo
405.401	1.598	D	0	521	second_nogo
407.102	1.497	Q	0	460	second_nogo
408.702	1.197	A	0	508	second_nogo
410.002	1.397	P	0	656	second_nogo
411.503	1.696	X	1	587	second_go
413.303	1.696	X	1	355	second_go
415.104	1.595	H	0	330	second_nogo
