onset	duration	value	accuracy	response_time	trial_type
3.999	1.8	X	1	644	first_go
5.9	1.699	X	1	417	first_go
7.7	1.299	X	1	368	first_go
9.101	1.598	B	0	1247	first_nogo
10.801	1.398	+	NA	0	first_fix
12.301	1.598	X	1	529	first_go
14.002	1.297	X	1	501	first_go
15.402	1.197	X	1	382	first_go
16.703	1.396	X	1	385	first_go
18.203	1.596	X	1	423	first_go
19.904	1.595	X	1	391	first_go
21.604	1.495	X	1	477	first_go
23.205	1.294	X	1	395	first_go
24.605	1.294	Q	1	0	first_nogo
26.005	1.294	X	1	405	first_go
27.406	1.693	P	1	0	first_nogo
29.206	1.293	X	1	440	first_go
30.607	1.692	X	1	406	first_go
32.407	1.292	X	1	400	first_go
33.808	1.391	M	1	0	first_nogo
35.308	1.591	H	1	0	first_nogo
37.008	1.791	E	1	0	first_nogo
38.909	1.49	X	1	402	first_go
40.509	1.39	X	1	497	first_go
42.01	1.689	X	1	508	first_go
43.81	1.689	+	NA	0	first_fix
45.611	1.688	X	1	448	first_go
47.411	1.388	X	1	401	first_go
48.912	1.187	X	1	446	first_go
50.212	1.587	X	1	569	first_go
51.913	1.186	J	1	0	first_nogo
53.198	1.601	X	1	380	first_go
54.898	1.201	X	1	387	first_go
56.198	1.501	A	1	0	first_nogo
57.798	1.401	S	1	0	first_nogo
59.298	1.601	H	1	0	first_nogo
60.999	1.2	+	NA	0	first_fix
62.299	1.8	O	1	0	first_nogo
64.2	1.199	X	1	506	first_go
65.5	1.799	+	NA	0	first_fix
67.4	1.499	X	1	440	first_go
69.001	1.798	I	1	0	first_nogo
70.901	1.798	X	1	444	first_go
72.802	1.597	X	1	421	first_go
74.502	1.297	O	1	0	first_nogo
75.903	1.496	X	1	412	first_go
77.503	1.496	X	1	417	first_go
79.104	1.295	X	1	384	first_go
80.504	1.695	N	1	0	first_nogo
82.305	1.794	Q	1	0	first_nogo
84.205	1.394	X	1	385	first_go
85.706	1.493	X	1	373	first_go
87.306	1.693	X	1	389	first_go
89.107	1.592	+	NA	0	first_fix
90.807	1.492	X	1	422	first_go
92.407	1.292	A	1	0	first_nogo
93.808	1.791	X	1	358	first_go
95.708	1.591	+	NA	0	first_fix
97.409	1.19	X	1	426	first_go
98.709	1.19	X	1	501	first_go
100.01	1.289	T	1	0	first_nogo
101.41	1.689	X	1	444	first_go
103.211	1.188	X	1	403	first_go
104.511	1.488	N	1	0	first_nogo
106.111	1.288	X	1	389	first_go
107.512	1.187	+	NA	0	first_fix
108.812	1.187	X	1	470	first_go
110.112	1.387	+	NA	0	first_fix
111.598	1.701	X	1	471	first_go
113.398	1.401	X	1	425	first_go
114.898	1.801	X	1	478	first_go
116.798	1.801	X	1	535	first_go
118.698	1.201	X	1	424	first_go
119.999	1.5	X	1	396	first_go
121.599	1.3	X	1	436	first_go
122.999	1.3	G	1	0	first_nogo
124.4	1.399	X	1	386	first_go
125.9	1.499	X	1	398	first_go
127.501	1.298	X	1	404	first_go
128.901	1.598	I	1	0	first_nogo
130.602	1.297	+	NA	0	first_fix
132.002	1.697	C	1	0	first_nogo
133.803	1.596	T	1	0	first_nogo
135.503	1.796	X	1	493	first_go
137.404	1.595	X	1	548	first_go
139.104	1.295	B	1	0	first_nogo
140.504	1.495	S	1	0	first_nogo
142.105	1.794	X	1	431	first_go
144.005	1.794	X	1	531	first_go
145.906	1.493	X	1	457	first_go
147.506	1.493	P	1	0	first_nogo
149.107	1.192	R	1	0	first_nogo
150.407	1.292	X	1	504	first_go
151.808	1.791	X	1	429	first_go
153.708	1.191	X	1	356	first_go
155.009	1.79	C	1	0	first_nogo
156.909	1.69	M	1	0	first_nogo
158.71	1.689	X	1	454	first_go
160.51	1.389	X	1	382	first_go
162.011	1.488	X	1	519	first_go
163.611	1.388	X	1	500	first_go
165.111	1.488	X	1	709	first_go
166.712	1.587	X	1	452	first_go
168.412	1.487	X	1	531	first_go
169.998	1.301	D	1	0	first_nogo
171.398	1.801	X	1	401	first_go
173.298	1.501	X	1	450	first_go
174.898	1.401	U	1	0	first_nogo
176.398	1.201	X	1	455	first_go
177.698	1.401	R	1	0	first_nogo
179.199	1.6	X	1	419	first_go
180.899	1.5	X	1	438	first_go
182.5	1.599	X	1	454	first_go
184.2	1.499	X	1	396	first_go
185.801	1.798	X	1	396	first_go
187.701	1.198	X	1	435	first_go
189.001	1.698	X	1	440	first_go
190.802	1.797	X	1	379	first_go
192.703	1.196	X	1	471	first_go
194.003	1.196	X	1	641	first_go
195.303	1.696	X	1	444	first_go
197.104	1.495	X	1	564	first_go
198.704	1.195	X	1	425	first_go
200.005	1.794	X	1	520	first_go
201.905	1.494	+	NA	0	first_fix
203.506	1.793	X	1	417	first_go
205.406	1.193	X	1	531	first_go
206.706	1.693	X	1	435	first_go
208.507	1.692	G	1	0	first_nogo
210.308	1.591	X	1	459	first_go
212.008	1.391	X	1	401	first_go
213.508	1.491	X	1	410	first_go
215.109	1.39	X	1	411	first_go
216.609	1.29	E	1	0	first_nogo
218.01	1.589	D	1	0	first_nogo
219.71	1.189	X	1	355	first_go
221.011	1.688	+	NA	0	first_fix
222.811	1.788	X	1	388	first_go
224.712	1.687	X	1	473	first_go
226.512	1.487	X	1	387	first_go
228.113	1.586	X	1	429	first_go
229.798	1.401	L	1	0	first_nogo
231.298	1.801	X	1	575	first_go
233.198	1.801	X	1	389	first_go
235.098	1.401	X	1	396	first_go
236.598	1.801	X	1	399	first_go
238.499	1.3	X	1	495	first_go
239.899	1.5	X	1	531	first_go
241.5	1.499	+	NA	0	first_fix
243.1	1.499	X	1	363	first_go
244.701	1.798	L	1	0	first_nogo
246.601	1.298	X	1	419	first_go
248.002	1.397	F	1	0	first_nogo
249.502	1.797	X	1	362	first_go
251.402	1.297	X	1	431	first_go
252.803	1.796	F	1	0	first_nogo
254.703	1.296	X	1	526	first_go
256.104	1.795	X	1	493	first_go
258.004	1.395	U	0	381	first_nogo
259.505	1.594	X	0	0	first_go
261.205	1.394	X	1	356	first_go
262.706	1.493	X	1	411	first_go
264.306	1.193	X	1	384	first_go
265.607	1.492	X	1	591	first_go
267.207	1.192	X	1	364	first_go
268.507	1.392	X	1	399	first_go
270.008	1.791	X	1	396	first_go
271.908	1.591	J	1	0	first_nogo
273.609	1.59	X	1	418	first_go
275.309	1.69	X	1	480	first_go
277.11	1.489	X	1	489	first_go
278.71	1.189	X	1	483	first_go
280.011	1.488	X	1	729	second_go
281.611	1.388	X	1	438	second_go
283.111	1.588	X	1	386	second_go
284.812	1.687	S	1	0	second_nogo
286.612	1.687	H	1	0	second_nogo
288.398	1.401	X	1	388	second_go
289.898	1.301	F	1	0	second_nogo
291.298	1.501	O	1	0	second_nogo
292.898	1.301	F	1	0	second_nogo
294.298	1.501	N	1	0	second_nogo
295.898	1.601	+	NA	0	second_fix
297.599	1.6	A	1	0	second_nogo
299.299	1.5	X	1	474	second_go
300.9	1.199	X	1	448	second_go
302.2	1.299	R	1	0	second_nogo
303.601	1.698	X	1	399	second_go
305.401	1.198	C	1	0	second_nogo
306.701	1.498	G	1	0	second_nogo
308.302	1.197	D	1	0	second_nogo
309.602	1.397	P	1	0	second_nogo
311.103	1.396	U	1	0	second_nogo
312.603	1.696	N	1	0	second_nogo
314.404	1.595	L	1	0	second_nogo
316.104	1.695	X	1	529	second_go
317.905	1.594	L	1	0	second_nogo
319.605	1.494	G	1	0	second_nogo
321.206	1.193	R	1	0	second_nogo
322.506	1.293	X	1	442	second_go
323.906	1.193	X	1	433	second_go
325.207	1.392	X	1	443	second_go
326.707	1.692	M	1	0	second_nogo
328.508	1.391	H	1	0	second_nogo
330.008	1.391	D	1	0	second_nogo
331.508	1.391	S	1	0	second_nogo
333.009	1.79	E	1	0	second_nogo
334.909	1.49	T	1	0	second_nogo
336.51	1.689	E	1	0	second_nogo
338.31	1.289	U	1	0	second_nogo
339.711	1.588	I	1	0	second_nogo
341.411	1.688	M	1	0	second_nogo
343.212	1.587	J	1	0	second_nogo
344.912	1.187	G	1	0	second_nogo
346.213	1.686	+	NA	0	second_fix
347.998	1.701	X	1	526	second_go
349.798	1.401	J	1	0	second_nogo
351.298	1.701	J	1	0	second_nogo
353.098	1.201	X	1	496	second_go
354.398	1.801	U	1	0	second_nogo
356.299	1.4	F	1	0	second_nogo
357.799	1.4	A	1	0	second_nogo
359.3	1.299	X	1	473	second_go
360.7	1.699	B	1	0	second_nogo
362.501	1.198	X	1	552	second_go
363.801	1.798	Q	1	0	second_nogo
365.701	1.598	C	1	0	second_nogo
367.402	1.197	D	1	0	second_nogo
368.702	1.197	I	1	0	second_nogo
370.003	1.796	X	1	543	second_go
371.903	1.596	R	1	0	second_nogo
373.604	1.795	H	1	0	second_nogo
375.504	1.695	B	1	0	second_nogo
377.305	1.494	A	1	0	second_nogo
378.905	1.394	B	1	0	second_nogo
380.406	1.193	L	1	0	second_nogo
381.706	1.793	X	1	569	second_go
383.607	1.492	T	1	0	second_nogo
385.207	1.492	O	1	0	second_nogo
386.807	1.292	C	1	0	second_nogo
388.208	1.291	P	1	0	second_nogo
389.608	1.591	N	1	0	second_nogo
391.309	1.29	Q	1	0	second_nogo
392.709	1.69	M	1	0	second_nogo
394.51	1.389	E	1	0	second_nogo
396.01	1.389	X	1	487	second_go
397.51	1.189	P	1	0	second_nogo
398.811	1.388	T	1	0	second_nogo
400.311	1.588	S	1	0	second_nogo
402.012	1.587	X	1	527	second_go
403.712	1.787	+	NA	0	second_fix
405.598	1.301	X	1	591	second_go
406.998	1.601	I	1	0	second_nogo
408.698	1.601	O	1	0	second_nogo
410.398	1.701	Q	1	0	second_nogo
412.198	1.301	+	NA	0	second_fix
413.598	1.301	+	NA	0	second_fix
414.999	1.7	+	NA	0	second_fix
