onset	duration	value	accuracy	response_time	trial_type
4.009	1.29	X	1	475	first_go
5.41	1.289	X	1	427	first_go
6.81	1.189	G	1	0	first_nogo
8.11	1.589	X	1	327	first_go
9.811	1.688	F	1	0	first_nogo
11.611	1.488	X	1	341	first_go
13.212	1.487	X	1	372	first_go
14.812	1.387	X	1	318	first_go
16.313	1.586	X	1	299	first_go
17.998	1.301	X	1	269	first_go
19.398	1.401	X	1	266	first_go
20.898	1.201	X	1	329	first_go
22.198	1.401	X	1	290	first_go
23.698	1.301	+	NA	0	first_fix
25.098	1.201	X	1	433	first_go
26.399	1.8	X	1	266	first_go
28.299	1.7	X	1	427	first_go
30.1	1.199	X	1	336	first_go
31.4	1.499	X	1	305	first_go
33.001	1.698	X	1	275	first_go
34.801	1.498	X	1	311	first_go
36.402	1.197	R	1	0	first_nogo
37.702	1.697	+	NA	0	first_fix
39.503	1.296	B	1	0	first_nogo
40.903	1.196	+	NA	0	first_fix
42.203	1.296	X	1	391	first_go
43.604	1.395	X	1	487	first_go
45.104	1.795	F	1	0	first_nogo
47.005	1.194	X	1	353	first_go
48.305	1.694	X	1	369	first_go
50.106	1.793	J	1	0	first_nogo
52.006	1.193	X	1	376	first_go
53.307	1.592	X	1	295	first_go
55.007	1.192	X	1	296	first_go
56.307	1.192	Q	0	319	first_nogo
57.608	1.291	X	1	429	first_go
59.008	1.591	E	1	0	first_nogo
60.709	1.49	Q	1	0	first_nogo
62.309	1.59	X	1	380	first_go
64.01	1.689	X	1	460	first_go
65.81	1.289	X	1	289	first_go
67.211	1.588	X	1	387	first_go
68.911	1.288	X	1	326	first_go
70.311	1.688	X	1	318	first_go
72.112	1.187	+	NA	0	first_fix
73.412	1.487	X	1	512	first_go
74.998	1.301	T	1	0	first_nogo
76.398	1.801	+	NA	0	first_fix
78.298	1.801	P	1	0	first_nogo
80.198	1.301	A	1	0	first_nogo
81.598	1.501	X	1	424	first_go
83.198	1.801	X	1	319	first_go
85.099	1.8	X	1	529	first_go
87	1.399	X	1	332	first_go
88.5	1.299	I	1	0	first_nogo
89.9	1.699	N	1	0	first_nogo
91.701	1.598	X	1	288	first_go
93.401	1.298	X	1	331	first_go
94.802	1.297	X	1	329	first_go
96.202	1.597	X	1	286	first_go
97.903	1.396	X	1	276	first_go
99.403	1.296	X	1	264	first_go
100.804	1.795	X	1	292	first_go
102.704	1.195	X	1	427	first_go
104.004	1.395	X	1	368	first_go
105.505	1.294	X	1	391	first_go
106.905	1.394	C	1	0	first_nogo
108.406	1.493	X	1	353	first_go
110.006	1.593	P	1	0	first_nogo
111.707	1.792	X	1	286	first_go
113.607	1.292	D	1	0	first_nogo
115.008	1.191	X	1	295	first_go
116.308	1.791	X	1	459	first_go
118.208	1.491	X	1	418	first_go
119.809	1.49	X	1	293	first_go
121.409	1.19	X	1	284	first_go
122.71	1.489	X	1	335	first_go
124.31	1.789	X	1	335	first_go
126.211	1.488	X	1	377	first_go
127.811	1.188	X	1	350	first_go
129.112	1.187	X	1	386	first_go
130.412	1.587	U	1	0	first_nogo
132.112	1.487	X	1	297	first_go
133.698	1.401	X	1	438	first_go
135.198	1.201	X	1	346	first_go
136.498	1.201	X	1	343	first_go
137.798	1.501	X	1	288	first_go
139.398	1.401	G	1	0	first_nogo
140.898	1.501	X	1	324	first_go
142.499	1.3	L	1	0	first_nogo
143.899	1.2	X	1	344	first_go
145.2	1.599	X	1	423	first_go
146.9	1.799	X	1	315	first_go
148.801	1.698	X	1	282	first_go
150.601	1.198	T	1	0	first_nogo
151.901	1.698	X	1	331	first_go
153.702	1.797	X	1	359	first_go
155.603	1.796	X	1	356	first_go
157.503	1.496	H	1	0	first_nogo
159.104	1.195	X	1	325	first_go
160.404	1.395	X	1	330	first_go
161.904	1.695	X	1	306	first_go
163.705	1.794	X	1	298	first_go
165.605	1.594	X	1	282	first_go
167.306	1.693	X	1	276	first_go
169.106	1.793	X	1	284	first_go
171.007	1.692	X	1	307	first_go
172.807	1.692	J	1	0	first_nogo
174.608	1.691	X	1	331	first_go
176.408	1.791	X	1	321	first_go
178.309	1.39	X	1	310	first_go
179.809	1.39	X	1	327	first_go
181.31	1.489	X	1	366	first_go
182.91	1.589	B	0	311	first_nogo
184.611	1.688	X	1	357	first_go
186.411	1.788	X	1	476	first_go
188.312	1.187	X	1	291	first_go
189.612	1.787	+	NA	0	first_fix
191.498	1.801	X	1	342	first_go
193.398	1.501	O	1	0	first_nogo
194.998	1.801	X	1	314	first_go
196.898	1.701	X	1	345	first_go
198.698	1.201	X	1	366	first_go
199.999	1.2	X	1	287	first_go
201.299	1.5	X	1	298	first_go
202.899	1.7	X	1	311	first_go
204.7	1.399	I	0	296	first_nogo
206.2	1.699	C	1	0	first_nogo
208.001	1.798	X	1	402	first_go
209.901	1.498	+	NA	0	first_fix
211.502	1.297	X	1	446	first_go
212.902	1.297	O	1	0	first_nogo
214.303	1.696	R	1	0	first_nogo
216.103	1.696	M	1	0	first_nogo
217.904	1.695	S	1	0	first_nogo
219.704	1.295	X	1	308	first_go
221.105	1.594	+	NA	0	first_fix
222.805	1.494	X	1	336	first_go
224.406	1.293	X	1	266	first_go
225.806	1.293	X	1	277	first_go
227.206	1.493	X	1	274	first_go
228.807	1.692	D	1	0	first_nogo
230.607	1.692	E	1	0	first_nogo
232.408	1.791	+	NA	0	first_fix
234.308	1.291	X	1	457	first_go
235.709	1.49	+	NA	0	first_fix
237.309	1.49	M	0	311	first_nogo
238.91	1.289	L	1	0	first_nogo
240.31	1.689	X	1	375	first_go
242.111	1.588	X	1	306	first_go
243.811	1.288	A	1	0	first_nogo
245.212	1.187	H	1	0	first_nogo
246.512	1.387	X	1	366	first_go
248.012	1.587	X	1	348	first_go
249.698	1.801	X	1	330	first_go
251.598	1.701	X	1	335	first_go
253.398	1.601	X	1	435	first_go
255.098	1.701	+	NA	0	first_fix
256.898	1.401	N	1	0	first_nogo
258.399	1.7	X	1	429	first_go
260.199	1.6	X	1	308	first_go
261.9	1.799	+	NA	0	first_fix
263.8	1.399	X	1	605	first_go
265.301	1.398	X	1	323	first_go
266.801	1.698	S	1	0	first_nogo
268.602	1.397	X	1	487	first_go
270.102	1.797	X	1	303	first_go
272.003	1.796	X	1	524	first_go
273.903	1.596	X	1	252	first_go
275.604	1.495	X	1	300	first_go
277.204	1.795	U	1	0	first_nogo
279.105	1.694	X	1	278	first_go
280.905	1.594	X	1	324	second_go
282.606	1.193	C	1	0	second_nogo
283.906	1.493	X	1	300	second_go
285.506	1.393	M	1	0	second_nogo
287.007	1.692	P	1	0	second_nogo
288.807	1.792	+	NA	0	second_fix
290.708	1.691	T	1	0	second_nogo
292.508	1.791	+	NA	0	second_fix
294.409	1.49	X	1	367	second_go
296.009	1.59	U	1	0	second_nogo
297.71	1.289	A	1	0	second_nogo
299.11	1.189	N	1	0	second_nogo
300.411	1.488	G	1	0	second_nogo
302.011	1.388	H	1	0	second_nogo
303.512	1.487	B	1	0	second_nogo
305.112	1.587	X	1	478	second_go
306.813	1.386	Q	1	0	second_nogo
308.298	1.501	J	1	0	second_nogo
309.898	1.201	M	1	0	second_nogo
311.198	1.801	I	1	0	second_nogo
313.098	1.201	G	1	0	second_nogo
314.398	1.801	D	1	0	second_nogo
316.299	1.5	U	1	0	second_nogo
317.899	1.2	U	1	0	second_nogo
319.199	1.6	E	1	0	second_nogo
320.9	1.799	H	1	0	second_nogo
322.8	1.399	O	1	0	second_nogo
324.301	1.798	X	1	459	second_go
326.201	1.298	C	1	0	second_nogo
327.602	1.497	L	1	0	second_nogo
329.202	1.297	X	1	424	second_go
330.603	1.596	X	1	402	second_go
332.303	1.596	S	1	0	second_nogo
334.004	1.195	Q	1	0	second_nogo
335.304	1.795	X	1	416	second_go
337.205	1.394	J	1	0	second_nogo
338.705	1.494	E	1	0	second_nogo
340.305	1.194	F	1	0	second_nogo
341.606	1.293	G	1	0	second_nogo
343.006	1.193	X	1	394	second_go
344.307	1.492	M	1	0	second_nogo
345.907	1.592	X	1	502	second_go
347.608	1.391	X	1	385	second_go
349.108	1.691	E	1	0	second_nogo
350.908	1.591	+	NA	0	second_fix
352.609	1.49	L	1	0	second_nogo
354.209	1.59	N	1	0	second_nogo
355.91	1.589	X	1	408	second_go
357.61	1.489	R	1	0	second_nogo
359.211	1.388	A	1	0	second_nogo
360.711	1.788	X	1	422	second_go
362.612	1.587	J	1	0	second_nogo
364.312	1.187	O	1	0	second_nogo
365.613	1.386	X	1	398	second_go
367.098	1.601	R	1	0	second_nogo
368.798	1.501	I	1	0	second_nogo
370.398	1.401	X	1	497	second_go
371.898	1.601	A	1	0	second_nogo
373.598	1.401	L	1	0	second_nogo
375.099	1.6	N	1	0	second_nogo
376.799	1.2	F	1	0	second_nogo
378.1	1.599	C	1	0	second_nogo
379.8	1.699	I	1	0	second_nogo
381.601	1.298	Q	1	0	second_nogo
383.001	1.398	D	1	0	second_nogo
384.501	1.398	T	1	0	second_nogo
386.002	1.397	X	1	397	second_go
387.502	1.497	+	NA	0	second_fix
389.103	1.296	X	1	433	second_go
390.503	1.196	B	1	0	second_nogo
391.804	1.695	S	1	0	second_nogo
393.604	1.295	P	1	0	second_nogo
395.004	1.395	P	1	0	second_nogo
396.505	1.294	X	1	340	second_go
397.905	1.294	S	1	0	second_nogo
399.306	1.593	X	1	468	second_go
401.006	1.493	R	1	0	second_nogo
402.607	1.392	B	1	0	second_nogo
404.107	1.292	+	NA	0	second_fix
405.507	1.392	X	1	482	second_go
407.008	1.691	F	1	0	second_nogo
408.808	1.491	+	NA	0	second_fix
410.409	1.59	O	1	0	second_nogo
412.109	1.39	T	1	0	second_nogo
413.61	1.589	H	1	0	second_nogo
415.31	1.389	D	1	0	second_nogo
