onset	duration	value	accuracy	response_time	trial_type
3.999	1.8	X	1	416	first_go
5.9	1.399	X	1	419	first_go
7.4	1.199	G	1	0	first_nogo
8.701	1.698	X	1	402	first_go
10.501	1.498	X	1	522	first_go
12.102	1.397	X	1	401	first_go
13.602	1.697	X	1	501	first_go
15.403	1.696	X	1	436	first_go
17.203	1.596	X	1	444	first_go
18.904	1.395	X	1	487	first_go
20.404	1.695	C	1	0	first_nogo
22.205	1.194	X	1	378	first_go
23.505	1.394	X	1	438	first_go
25.005	1.794	S	1	0	first_nogo
26.906	1.193	X	1	453	first_go
28.206	1.193	X	1	385	first_go
29.507	1.292	X	1	436	first_go
30.907	1.392	U	1	0	first_nogo
32.408	1.591	X	1	383	first_go
34.108	1.691	X	1	307	first_go
35.909	1.29	X	1	378	first_go
37.309	1.79	X	1	410	first_go
39.21	1.589	Q	1	0	first_nogo
40.91	1.789	X	1	513	first_go
42.811	1.288	X	1	388	first_go
44.211	1.188	X	1	420	first_go
45.511	1.288	B	1	0	first_nogo
46.912	1.587	X	1	743	first_go
48.612	1.287	+	NA	0	first_fix
50.013	1.386	X	1	458	first_go
51.498	1.301	X	1	405	first_go
52.898	1.601	X	1	277	first_go
54.598	1.301	X	1	377	first_go
55.998	1.601	X	1	385	first_go
57.698	1.401	X	1	301	first_go
59.199	1.3	X	1	367	first_go
60.599	1.8	H	0	312	first_nogo
62.5	1.699	X	1	387	first_go
64.3	1.799	X	1	322	first_go
66.201	1.298	X	1	301	first_go
67.601	1.198	+	NA	0	first_fix
68.902	1.697	X	1	520	first_go
70.702	1.497	B	1	0	first_nogo
72.303	1.796	X	1	591	first_go
74.203	1.196	X	1	355	first_go
75.503	1.696	X	1	431	first_go
77.304	1.295	X	1	358	first_go
78.704	1.495	X	1	366	first_go
80.305	1.394	X	1	381	first_go
81.805	1.294	X	1	417	first_go
83.206	1.793	D	1	0	first_nogo
85.106	1.693	X	1	380	first_go
86.907	1.392	X	1	307	first_go
88.407	1.292	X	1	551	first_go
89.808	1.491	P	1	0	first_nogo
91.408	1.791	X	1	398	first_go
93.309	1.49	+	NA	0	first_fix
94.909	1.59	X	1	1105	first_go
96.61	1.789	Q	1	0	first_nogo
98.51	1.789	X	1	344	first_go
100.411	1.288	X	1	355	first_go
101.811	1.588	X	1	347	first_go
103.512	1.287	X	1	294	first_go
104.912	1.487	X	1	294	first_go
106.512	1.787	X	1	246	first_go
108.398	1.201	X	1	328	first_go
109.698	1.301	X	1	468	first_go
111.098	1.301	X	1	276	first_go
112.498	1.601	X	1	292	first_go
114.198	1.801	X	1	248	first_go
116.099	1.4	S	1	0	first_nogo
117.599	1.5	X	1	495	first_go
119.199	1.7	G	1	0	first_nogo
121	1.599	X	1	542	first_go
122.701	1.598	I	1	0	first_nogo
124.401	1.798	M	1	0	first_nogo
126.302	1.497	H	1	0	first_nogo
127.902	1.497	+	NA	0	first_fix
129.502	1.297	N	1	0	first_nogo
130.903	1.196	X	1	687	first_go
132.203	1.796	+	NA	0	first_fix
134.104	1.595	X	1	614	first_go
135.804	1.195	X	1	602	first_go
137.105	1.694	X	1	485	first_go
138.905	1.794	+	NA	0	first_fix
140.806	1.593	E	1	0	first_nogo
142.506	1.693	X	1	428	first_go
144.307	1.792	A	1	0	first_nogo
146.207	1.192	F	1	0	first_nogo
147.508	1.691	X	1	586	first_go
149.308	1.591	J	1	0	first_nogo
151.009	1.59	+	NA	0	first_fix
152.709	1.79	J	1	0	first_nogo
154.61	1.589	F	1	0	first_nogo
156.31	1.689	T	1	0	first_nogo
158.111	1.588	X	1	695	first_go
159.811	1.288	U	1	0	first_nogo
161.212	1.487	X	1	601	first_go
162.812	1.187	L	1	0	first_nogo
164.113	1.286	R	1	0	first_nogo
165.498	1.201	X	1	627	first_go
166.798	1.201	X	1	528	first_go
168.098	1.401	X	1	387	first_go
169.598	1.401	X	1	431	first_go
171.098	1.701	X	1	667	first_go
172.898	1.501	N	1	0	first_nogo
174.499	1.4	O	1	0	first_nogo
175.999	1.8	X	1	606	first_go
177.9	1.199	X	1	649	first_go
179.2	1.699	T	1	0	first_nogo
181.001	1.598	X	1	860	first_go
182.701	1.198	X	1	848	first_go
184.002	1.697	X	1	619	first_go
185.802	1.597	X	1	571	first_go
187.503	1.196	E	0	270	first_nogo
188.803	1.396	X	1	434	first_go
190.304	1.495	+	NA	0	first_fix
191.904	1.695	X	1	317	first_go
193.705	1.394	X	1	476	first_go
195.205	1.394	+	NA	0	first_fix
196.705	1.494	X	1	1020	first_go
198.306	1.293	X	1	475	first_go
199.706	1.293	I	1	0	first_nogo
201.107	1.192	+	NA	0	first_fix
202.407	1.292	X	1	558	first_go
203.807	1.692	P	1	0	first_nogo
205.608	1.791	M	1	0	first_nogo
207.509	1.49	X	1	448	first_go
209.109	1.59	X	1	624	first_go
210.809	1.39	X	1	492	first_go
212.31	1.689	X	1	679	first_go
214.11	1.289	X	1	495	first_go
215.511	1.288	+	NA	854	first_fix
216.911	1.588	X	1	438	first_go
218.612	1.187	X	1	289	first_go
219.912	1.487	X	1	437	first_go
221.513	1.586	X	1	324	first_go
223.198	1.701	X	1	287	first_go
224.998	1.501	X	1	255	first_go
226.598	1.501	+	NA	0	first_fix
228.198	1.201	X	1	623	first_go
229.498	1.401	C	1	0	first_nogo
230.999	1.4	X	0	0	first_go
232.499	1.3	X	1	482	first_go
233.9	1.599	X	1	409	first_go
235.6	1.799	X	1	373	first_go
237.501	1.498	X	1	312	first_go
239.101	1.698	X	1	280	first_go
240.902	1.797	O	1	0	first_nogo
242.802	1.797	X	0	0	first_go
244.703	1.496	X	0	0	first_go
246.303	1.796	X	1	390	first_go
248.204	1.495	X	1	281	first_go
249.804	1.195	X	1	345	first_go
251.105	1.494	X	1	348	first_go
252.705	1.494	X	1	260	first_go
254.305	1.394	X	1	268	first_go
255.806	1.693	X	1	255	first_go
257.606	1.693	X	1	398	first_go
259.407	1.392	X	1	309	first_go
260.907	1.392	X	1	369	first_go
262.408	1.191	A	0	268	first_nogo
263.708	1.191	X	1	512	first_go
265.009	1.49	X	1	412	first_go
266.609	1.29	X	1	515	first_go
268.009	1.39	L	1	0	first_nogo
269.51	1.289	X	1	678	first_go
270.91	1.489	D	1	0	first_nogo
272.511	1.388	R	0	325	first_nogo
274.011	1.388	X	1	505	first_go
275.512	1.787	X	1	540	first_go
277.412	1.387	X	1	592	first_go
278.913	1.686	U	1	0	second_nogo
280.698	1.601	X	1	874	second_go
282.398	1.501	S	1	0	second_nogo
283.998	1.601	N	1	0	second_nogo
285.698	1.601	+	NA	0	second_fix
287.398	1.501	G	1	0	second_nogo
288.999	1.6	O	1	0	second_nogo
290.699	1.4	O	1	0	second_nogo
292.2	1.499	J	1	0	second_nogo
293.8	1.499	A	1	0	second_nogo
295.401	1.198	A	1	0	second_nogo
296.701	1.498	X	1	511	second_go
298.302	1.797	O	1	0	second_nogo
300.202	1.597	X	1	802	second_go
301.903	1.796	P	1	0	second_nogo
303.803	1.196	R	1	0	second_nogo
305.104	1.195	J	1	0	second_nogo
306.404	1.695	M	1	0	second_nogo
308.205	1.794	F	1	0	second_nogo
310.105	1.394	R	1	0	second_nogo
311.605	1.294	H	1	0	second_nogo
313.006	1.593	X	1	518	second_go
314.706	1.293	U	1	0	second_nogo
316.107	1.592	G	1	0	second_nogo
317.807	1.492	G	1	0	second_nogo
319.408	1.391	Q	1	0	second_nogo
320.908	1.291	P	1	0	second_nogo
322.309	1.49	C	1	0	second_nogo
323.909	1.79	F	1	0	second_nogo
325.81	1.589	C	1	0	second_nogo
327.51	1.289	L	1	0	second_nogo
328.911	1.688	X	1	437	second_go
330.711	1.188	N	1	0	second_nogo
332.011	1.388	H	1	0	second_nogo
333.512	1.687	T	1	0	second_nogo
335.312	1.187	D	1	0	second_nogo
336.598	1.201	I	1	0	second_nogo
337.898	1.401	J	1	0	second_nogo
339.398	1.301	+	NA	0	second_fix
340.798	1.601	D	1	0	second_nogo
342.498	1.701	L	1	0	second_nogo
344.298	1.501	T	1	0	second_nogo
345.899	1.5	X	1	737	second_go
347.499	1.3	A	1	0	second_nogo
348.9	1.499	X	1	808	second_go
350.5	1.699	X	1	496	second_go
352.301	1.198	S	1	0	second_nogo
353.601	1.498	X	1	475	second_go
355.202	1.697	B	1	0	second_nogo
357.002	1.697	X	1	625	second_go
358.803	1.496	S	1	0	second_nogo
360.403	1.496	I	1	0	second_nogo
362.004	1.595	E	1	0	second_nogo
363.704	1.195	X	1	1075	second_go
365.004	1.295	+	NA	0	second_fix
366.405	1.494	X	1	502	second_go
368.005	1.794	+	NA	0	second_fix
369.906	1.393	M	1	0	second_nogo
371.406	1.193	+	NA	0	second_fix
372.707	1.592	C	1	0	second_nogo
374.407	1.792	L	1	0	second_nogo
376.308	1.791	X	1	519	second_go
378.208	1.491	E	1	0	second_nogo
379.809	1.19	E	1	0	second_nogo
381.109	1.69	P	1	0	second_nogo
382.91	1.389	Q	1	0	second_nogo
384.41	1.389	+	NA	0	second_fix
385.91	1.789	B	1	0	second_nogo
387.811	1.388	N	1	0	second_nogo
389.311	1.788	X	1	516	second_go
391.212	1.787	D	1	0	second_nogo
393.113	1.186	I	1	0	second_nogo
394.398	1.701	T	1	0	second_nogo
396.198	1.601	Q	1	0	second_nogo
397.898	1.301	X	1	457	second_go
399.298	1.501	F	1	0	second_nogo
400.898	1.301	H	1	0	second_nogo
402.299	1.4	B	1	0	second_nogo
403.799	1.7	R	1	0	second_nogo
405.6	1.199	X	1	563	second_go
406.9	1.199	X	1	471	second_go
408.2	1.399	X	1	563	second_go
409.701	1.698	U	1	0	second_nogo
411.501	1.598	X	1	382	second_go
413.202	1.797	X	0	0	second_go
415.102	1.597	M	1	0	second_nogo
