onset	duration	value	accuracy	response_time	trial_type
6.5	1.7	+	NA	0	OneBack_fix
8.217	1.884	Q	NA	0	OneBack_na
10.118	1.783	C	1	625	OneBack_NonTarget
11.918	1.984	C	1	940	OneBack_Target
13.919	1.683	F	1	903	OneBack_NonTarget
15.619	1.984	T	1	1070	OneBack_NonTarget
17.62	1.783	W	1	1116	OneBack_NonTarget
19.42	1.684	H	1	713	OneBack_NonTarget
21.121	1.483	H	1	695	OneBack_Target
22.621	1.884	H	1	648	OneBack_Target
24.522	1.383	R	1	526	OneBack_NonTarget
25.922	1.984	+	NA	0	OneBack_fix
27.923	1.483	Q	1	714	OneBack_NonTarget
29.423	1.584	P	1	623	OneBack_NonTarget
31.024	1.383	P	0	927	OneBack_Target
32.424	1.784	K	1	975	OneBack_NonTarget
34.225	1.583	H	1	561	OneBack_NonTarget
35.825	1.984	H	1	713	OneBack_Target
37.826	1.683	+	NA	0	OneBack_fix
39.526	1.484	K	1	948	OneBack_NonTarget
41.027	1.583	K	1	667	OneBack_Target
42.627	1.684	H	1	966	OneBack_NonTarget
44.328	1.683	W	1	811	OneBack_NonTarget
46.028	1.683	T	1	698	OneBack_NonTarget
47.728	1.784	W	1	1266	OneBack_NonTarget
49.529	1.483	W	1	726	OneBack_Target
51.029	1.984	S	1	588	OneBack_NonTarget
53.03	1.383	T	1	1133	OneBack_NonTarget
54.43	1.884	+	NA	0	OneBack_fix
56.331	1.383	M	1	920	OneBack_NonTarget
57.731	1.684	M	1	832	OneBack_Target
59.432	1.883	P	1	352	OneBack_NonTarget
61.332	1.884	P	1	780	OneBack_Target
63.233	1.883	G	1	524	OneBack_NonTarget
65.133	1.984	Z	1	694	OneBack_NonTarget
67.134	1.784	V	1	655	OneBack_NonTarget
68.935	1.483	V	1	882	OneBack_Target
70.435	1.883	N	1	539	OneBack_NonTarget
72.336	1.583	B	1	570	OneBack_NonTarget
73.936	1.483	T	1	729	OneBack_NonTarget
75.436	1.584	T	1	553	OneBack_Target
77.037	1.883	D	1	248	OneBack_NonTarget
78.937	1.784	V	1	932	OneBack_NonTarget
80.738	1.883	B	1	598	OneBack_NonTarget
82.638	1.484	B	1	999	OneBack_Target
84.139	1.983	B	1	1123	OneBack_Target
86.14	1.583	R	1	554	OneBack_NonTarget
87.74	1.383	D	1	811	OneBack_NonTarget
89.14	1.584	K	1	644	OneBack_NonTarget
90.741	1.483	P	1	811	OneBack_NonTarget
92.241	1.384	P	1	858	OneBack_Target
93.642	1.383	D	1	554	OneBack_NonTarget
95.042	1.384	D	1	793	OneBack_Target
96.442	1.384	D	1	686	OneBack_Target
97.843	1.383	D	1	739	OneBack_Target
99.243	1.584	D	1	575	OneBack_Target
100.844	1.783	F	1	525	OneBack_NonTarget
102.644	1.984	F	1	789	OneBack_Target
104.645	1.783	N	1	663	OneBack_NonTarget
106.445	1.584	+	NA	0	OneBack_fix
108.046	1.583	J	1	706	OneBack_NonTarget
109.646	1.584	Z	1	756	OneBack_NonTarget
111.247	1.683	S	1	588	OneBack_NonTarget
112.947	1.984	S	1	661	OneBack_Target
114.948	1.883	F	1	633	OneBack_NonTarget
116.848	1.784	F	1	972	OneBack_Target
118.649	1.383	N	1	586	OneBack_NonTarget
120.049	1.984	C	1	563	OneBack_NonTarget
122.05	1.383	Z	1	720	OneBack_NonTarget
123.45	1.784	Z	1	715	OneBack_Target
125.251	1.783	K	1	505	OneBack_NonTarget
127.051	1.784	+	NA	0	OneBack_fix
128.852	1.683	K	1	774	OneBack_Target
130.552	1.784	P	1	517	OneBack_NonTarget
132.353	1.483	G	1	548	OneBack_NonTarget
133.853	1.784	R	1	861	OneBack_NonTarget
135.654	1.983	R	1	697	OneBack_Target
137.654	1.884	L	1	700	OneBack_NonTarget
139.555	1.683	M	1	944	OneBack_NonTarget
141.255	1.584	M	0	615	OneBack_Target
142.856	1.483	P	1	1041	OneBack_NonTarget
144.356	1.684	H	1	843	OneBack_NonTarget
146.057	1.583	R	1	569	OneBack_NonTarget
147.657	1.484	J	1	1082	OneBack_NonTarget
149.158	1.683	R	1	922	OneBack_NonTarget
150.858	1.584	R	1	740	OneBack_Target
152.459	1.683	K	1	580	OneBack_NonTarget
154.159	1.383	H	1	528	OneBack_NonTarget
155.559	1.684	H	1	684	OneBack_Target
157.26	1.983	W	1	633	OneBack_NonTarget
159.26	1.984	W	1	765	OneBack_Target
161.261	1.784	K	1	536	OneBack_NonTarget
163.062	1.583	T	1	866	OneBack_NonTarget
164.662	1.883	T	1	693	OneBack_Target
166.563	1.483	T	1	721	OneBack_Target
168.063	1.883	F	1	594	OneBack_NonTarget
169.964	1.483	V	1	1078	OneBack_NonTarget
171.464	1.683	+	NA	0	OneBack_fix
179.15	1.7	+	NA	0	ZeroBack_fix
180.867	1.883	M	1	875	ZeroBack_NonTarget
182.767	1.984	X	1	580	ZeroBack_Target
184.768	1.483	N	1	510	ZeroBack_NonTarget
186.268	1.984	V	1	719	ZeroBack_NonTarget
188.269	1.683	F	1	970	ZeroBack_NonTarget
189.969	1.484	D	1	413	ZeroBack_NonTarget
191.47	1.683	X	1	517	ZeroBack_Target
193.17	1.584	W	1	532	ZeroBack_NonTarget
194.771	1.783	N	1	837	ZeroBack_NonTarget
196.571	1.384	X	1	665	ZeroBack_Target
197.972	1.583	Q	1	512	ZeroBack_NonTarget
199.572	1.684	Q	1	971	ZeroBack_NonTarget
201.273	1.883	X	1	529	ZeroBack_Target
203.173	1.584	L	1	525	ZeroBack_NonTarget
204.774	1.783	+	NA	0	ZeroBack_fix
206.574	1.784	F	1	608	ZeroBack_NonTarget
208.375	1.683	Z	1	379	ZeroBack_NonTarget
210.075	1.884	J	1	481	ZeroBack_NonTarget
211.976	1.683	H	1	555	ZeroBack_NonTarget
213.676	1.584	V	1	268	ZeroBack_NonTarget
215.277	1.583	F	1	484	ZeroBack_NonTarget
216.877	1.583	X	1	716	ZeroBack_Target
218.477	1.384	X	1	656	ZeroBack_Target
219.878	1.783	P	1	590	ZeroBack_NonTarget
221.678	1.384	B	1	713	ZeroBack_NonTarget
223.079	1.783	S	1	559	ZeroBack_NonTarget
224.879	1.984	X	1	699	ZeroBack_Target
226.88	1.983	X	1	892	ZeroBack_Target
228.88	1.884	D	1	473	ZeroBack_NonTarget
230.781	1.383	X	1	684	ZeroBack_Target
232.181	1.784	P	1	727	ZeroBack_NonTarget
233.982	1.383	X	1	646	ZeroBack_Target
235.382	1.484	J	1	512	ZeroBack_NonTarget
236.883	1.583	D	1	649	ZeroBack_NonTarget
238.483	1.984	B	1	690	ZeroBack_NonTarget
240.484	1.983	+	NA	0	ZeroBack_fix
242.484	1.884	X	1	675	ZeroBack_Target
244.385	1.583	L	1	696	ZeroBack_NonTarget
245.985	1.684	V	1	604	ZeroBack_NonTarget
247.686	1.383	C	1	537	ZeroBack_NonTarget
249.086	1.484	G	1	657	ZeroBack_NonTarget
250.587	1.783	M	1	980	ZeroBack_NonTarget
252.387	1.784	P	1	570	ZeroBack_NonTarget
254.188	1.483	X	1	720	ZeroBack_Target
255.688	1.684	D	1	530	ZeroBack_NonTarget
257.389	1.783	X	1	672	ZeroBack_Target
259.189	1.884	S	1	502	ZeroBack_NonTarget
261.09	1.783	+	NA	0	ZeroBack_fix
262.89	1.484	J	1	984	ZeroBack_NonTarget
264.391	1.883	X	1	624	ZeroBack_Target
266.291	1.884	B	1	726	ZeroBack_NonTarget
268.192	1.883	X	1	688	ZeroBack_Target
270.092	1.784	R	1	613	ZeroBack_NonTarget
271.893	1.383	R	1	731	ZeroBack_NonTarget
273.293	1.884	+	NA	0	ZeroBack_fix
275.194	1.783	H	1	1021	ZeroBack_NonTarget
276.994	1.684	X	1	757	ZeroBack_Target
278.695	1.483	S	1	586	ZeroBack_NonTarget
280.195	1.984	B	1	709	ZeroBack_NonTarget
282.196	1.683	D	1	627	ZeroBack_NonTarget
283.896	1.384	X	1	571	ZeroBack_Target
285.297	1.483	N	1	751	ZeroBack_NonTarget
286.797	1.584	X	1	753	ZeroBack_Target
288.398	1.483	R	1	677	ZeroBack_NonTarget
289.898	1.983	S	1	586	ZeroBack_NonTarget
291.899	1.383	X	1	636	ZeroBack_Target
293.299	1.583	J	1	561	ZeroBack_NonTarget
294.899	1.684	X	1	704	ZeroBack_Target
296.6	1.783	X	1	794	ZeroBack_Target
298.4	1.684	F	1	516	ZeroBack_NonTarget
300.101	1.683	+	NA	0	ZeroBack_fix
301.801	1.584	T	1	726	ZeroBack_NonTarget
303.402	1.883	X	1	621	ZeroBack_Target
305.302	1.984	B	1	697	ZeroBack_NonTarget
307.303	1.983	F	1	792	ZeroBack_NonTarget
309.304	1.783	F	1	687	ZeroBack_NonTarget
311.104	1.383	B	1	459	ZeroBack_NonTarget
312.504	1.684	K	1	553	ZeroBack_NonTarget
314.205	1.883	Q	1	451	ZeroBack_NonTarget
316.105	1.584	T	1	466	ZeroBack_NonTarget
317.706	1.683	X	1	546	ZeroBack_Target
319.406	1.784	X	1	488	ZeroBack_Target
321.207	1.583	W	1	643	ZeroBack_NonTarget
322.807	1.484	+	NA	0	ZeroBack_fix
324.308	1.483	X	1	699	ZeroBack_Target
325.808	1.984	Z	1	545	ZeroBack_NonTarget
327.809	1.383	P	1	545	ZeroBack_NonTarget
329.209	1.384	S	1	616	ZeroBack_NonTarget
330.61	1.383	X	1	809	ZeroBack_Target
332.01	1.583	X	1	815	ZeroBack_Target
333.61	1.484	V	1	1040	ZeroBack_NonTarget
335.111	1.583	D	1	682	ZeroBack_NonTarget
336.711	1.984	X	1	788	ZeroBack_Target
338.712	1.483	X	1	680	ZeroBack_Target
340.212	1.984	G	1	835	ZeroBack_NonTarget
342.213	1.683	X	1	801	ZeroBack_Target
343.913	1.884	+	NA	0	ZeroBack_fix
351.799	1.7	+	NA	0	TwoBack_fix
353.516	1.584	V	NA	518	TwoBack_na
355.117	1.383	P	NA	658	TwoBack_na
356.517	1.584	F	1	962	TwoBack_NonTarget
358.118	1.983	P	0	0	TwoBack_Target
360.118	1.684	H	1	754	TwoBack_NonTarget
361.819	1.683	V	1	834	TwoBack_NonTarget
363.519	1.884	N	0	1149	TwoBack_NonTarget
365.42	1.383	V	1	1059	TwoBack_Target
366.82	1.783	C	1	610	TwoBack_NonTarget
368.621	1.783	D	1	785	TwoBack_NonTarget
370.421	1.783	N	1	1301	TwoBack_NonTarget
372.222	1.883	D	1	922	TwoBack_Target
374.122	1.484	K	1	578	TwoBack_NonTarget
375.623	1.683	P	1	899	TwoBack_NonTarget
377.323	1.783	+	NA	0	TwoBack_fix
379.124	1.783	K	1	995	TwoBack_Target
380.924	1.884	F	1	619	TwoBack_NonTarget
382.825	1.583	Q	1	859	TwoBack_NonTarget
384.425	1.584	F	1	516	TwoBack_Target
386.026	1.783	S	1	559	TwoBack_NonTarget
387.826	1.383	T	1	661	TwoBack_NonTarget
389.226	1.584	D	1	834	TwoBack_NonTarget
390.827	1.783	T	1	467	TwoBack_Target
392.627	1.584	C	1	489	TwoBack_NonTarget
394.228	1.483	M	1	854	TwoBack_NonTarget
395.728	1.984	C	1	929	TwoBack_Target
397.729	1.683	K	1	758	TwoBack_NonTarget
399.429	1.884	S	1	1073	TwoBack_NonTarget
401.33	1.383	P	1	793	TwoBack_NonTarget
402.73	1.784	S	1	700	TwoBack_Target
404.531	1.583	W	1	415	TwoBack_NonTarget
406.131	1.384	S	0	1143	TwoBack_Target
407.532	1.583	+	NA	0	TwoBack_fix
409.132	1.684	B	1	894	TwoBack_NonTarget
410.833	1.783	Z	1	951	TwoBack_NonTarget
412.633	1.884	B	1	542	TwoBack_Target
414.534	1.483	Z	0	563	TwoBack_Target
416.034	1.784	B	0	0	TwoBack_Target
417.835	1.383	K	1	598	TwoBack_NonTarget
419.235	1.384	L	1	918	TwoBack_NonTarget
420.635	1.984	D	1	678	TwoBack_NonTarget
422.636	1.883	W	1	684	TwoBack_NonTarget
424.537	1.783	D	1	819	TwoBack_Target
426.337	1.684	P	1	1214	TwoBack_NonTarget
428.038	1.883	P	0	1278	TwoBack_NonTarget
429.938	1.784	P	0	0	TwoBack_Target
431.739	1.783	M	0	274	TwoBack_NonTarget
433.539	1.684	R	1	859	TwoBack_NonTarget
435.24	1.983	H	1	724	TwoBack_NonTarget
437.24	1.684	R	1	754	TwoBack_Target
438.941	1.983	Z	1	523	TwoBack_NonTarget
440.941	1.584	D	1	698	TwoBack_NonTarget
442.542	1.483	G	1	756	TwoBack_NonTarget
444.042	1.684	D	1	609	TwoBack_Target
445.743	1.483	T	1	776	TwoBack_NonTarget
447.243	1.684	Y	1	1234	TwoBack_NonTarget
448.944	1.583	T	1	588	TwoBack_Target
450.544	1.983	C	1	700	TwoBack_NonTarget
452.545	1.883	+	NA	0	TwoBack_fix
454.445	1.484	K	1	660	TwoBack_NonTarget
455.946	1.983	D	1	871	TwoBack_NonTarget
457.946	1.984	K	1	619	TwoBack_Target
459.947	1.883	B	1	559	TwoBack_NonTarget
461.847	1.584	V	0	0	TwoBack_NonTarget
463.448	1.483	Z	1	150	TwoBack_NonTarget
464.948	1.384	V	0	104	TwoBack_Target
466.349	1.583	Z	0	526	TwoBack_Target
467.949	1.783	V	1	1362	TwoBack_Target
469.75	1.683	P	1	545	TwoBack_NonTarget
471.45	1.383	H	1	832	TwoBack_NonTarget
472.85	1.584	P	1	806	TwoBack_Target
474.451	1.883	T	1	1076	TwoBack_NonTarget
476.351	1.484	P	0	0	TwoBack_Target
477.852	1.483	H	0	206	TwoBack_NonTarget
479.352	1.884	H	0	1032	TwoBack_NonTarget
481.253	1.783	H	1	628	TwoBack_Target
483.053	1.484	C	1	755	TwoBack_NonTarget
484.554	1.983	D	1	774	TwoBack_NonTarget
486.554	1.884	J	1	824	TwoBack_NonTarget
488.455	1.983	P	1	1242	TwoBack_NonTarget
490.455	1.984	J	0	0	TwoBack_Target
492.456	1.483	+	NA	0	TwoBack_fix
493.956	1.684	D	1	355	TwoBack_NonTarget
495.657	1.383	Q	1	760	TwoBack_NonTarget
497.057	1.984	D	1	648	TwoBack_Target
499.058	1.683	Q	1	1019	TwoBack_Target
500.758	1.384	F	1	942	TwoBack_NonTarget
502.159	1.483	Z	1	830	TwoBack_NonTarget
503.659	1.584	T	1	938	TwoBack_NonTarget
505.26	1.383	Z	1	514	TwoBack_Target
506.66	1.884	M	1	734	TwoBack_NonTarget
508.561	1.983	D	1	1036	TwoBack_NonTarget
510.561	1.684	J	1	1355	TwoBack_NonTarget
512.262	1.683	D	1	646	TwoBack_Target
513.962	1.384	W	1	739	TwoBack_NonTarget
515.363	1.483	D	1	1072	TwoBack_Target
516.863	1.584	+	NA	0	TwoBack_fix
