onset	duration	value	accuracy	response_time	trial_type
4	1.599	I	1	0	first_nogo
5.701	1.598	U	1	0	first_nogo
7.401	1.598	O	1	0	first_nogo
9.102	1.597	X	1	394	first_go
10.802	1.297	L	1	0	first_nogo
12.203	1.696	X	1	433	first_go
14.003	1.196	S	1	0	first_nogo
15.303	1.196	+	NA	0	first_fix
16.604	1.595	O	1	0	first_nogo
18.304	1.595	X	1	465	first_go
20.005	1.194	B	1	0	first_nogo
21.305	1.694	X	1	428	first_go
23.106	1.493	X	1	604	first_go
24.706	1.293	X	1	539	first_go
26.107	1.592	X	1	551	first_go
27.807	1.292	M	1	0	first_nogo
29.207	1.592	L	1	0	first_nogo
30.908	1.491	F	1	0	first_nogo
32.508	1.591	Q	1	0	first_nogo
34.209	1.69	M	1	0	first_nogo
36.009	1.19	P	1	0	first_nogo
37.31	1.489	+	NA	0	first_fix
38.91	1.289	B	1	0	first_nogo
40.311	1.688	D	1	0	first_nogo
42.111	1.188	P	1	0	first_nogo
43.412	1.387	A	1	0	first_nogo
44.912	1.187	X	1	532	first_go
46.212	1.287	T	1	0	first_nogo
47.613	1.486	R	1	0	first_nogo
49.198	1.501	+	NA	0	first_fix
50.798	1.401	J	1	0	first_nogo
52.298	1.701	H	1	0	first_nogo
54.098	1.301	D	1	0	first_nogo
55.498	1.201	L	1	0	first_nogo
56.799	1.6	X	1	555	first_go
58.499	1.3	H	1	0	first_nogo
59.9	1.599	U	1	0	first_nogo
61.6	1.199	X	1	542	first_go
62.9	1.299	C	1	0	first_nogo
64.301	1.798	O	1	0	first_nogo
66.201	1.298	+	NA	0	first_fix
67.602	1.497	J	1	0	first_nogo
69.202	1.497	A	1	0	first_nogo
70.803	1.196	E	1	0	first_nogo
72.103	1.696	+	NA	0	first_fix
73.904	1.695	X	1	436	first_go
75.704	1.495	G	1	0	first_nogo
77.305	1.194	H	1	0	first_nogo
78.605	1.794	X	1	526	first_go
80.505	1.794	R	1	0	first_nogo
82.406	1.393	G	1	0	first_nogo
83.906	1.593	X	1	501	first_go
85.607	1.592	C	1	0	first_nogo
87.307	1.292	N	1	0	first_nogo
88.708	1.191	I	1	0	first_nogo
90.008	1.291	S	1	0	first_nogo
91.409	1.39	Q	1	0	first_nogo
92.909	1.69	X	1	421	first_go
94.71	1.389	G	1	0	first_nogo
96.21	1.289	N	1	0	first_nogo
97.61	1.289	X	1	422	first_go
99.011	1.788	T	1	0	first_nogo
100.911	1.288	Q	1	0	first_nogo
102.312	1.487	J	1	0	first_nogo
103.912	1.787	X	1	465	first_go
105.813	1.786	E	1	0	first_nogo
107.698	1.301	A	1	0	first_nogo
109.098	1.201	C	1	0	first_nogo
110.398	1.401	F	1	0	first_nogo
111.898	1.201	T	1	0	first_nogo
113.198	1.801	+	NA	0	first_fix
115.099	1.2	N	1	0	first_nogo
116.399	1.8	F	1	0	first_nogo
118.3	1.399	M	1	0	first_nogo
119.8	1.199	X	1	544	first_go
121.1	1.299	S	1	0	first_nogo
122.501	1.498	B	1	0	first_nogo
124.101	1.798	E	1	0	first_nogo
126.002	1.597	D	1	0	first_nogo
127.702	1.597	X	1	512	first_go
129.403	1.596	I	1	0	first_nogo
131.103	1.196	X	1	640	first_go
132.404	1.795	X	1	405	first_go
134.304	1.295	R	1	0	first_nogo
135.705	1.594	U	1	0	first_nogo
137.405	1.194	P	1	0	first_nogo
138.706	1.393	X	1	477	second_go
140.206	1.793	X	1	545	second_go
142.106	1.193	X	1	706	second_go
143.407	1.192	X	1	645	second_go
144.707	1.592	X	1	679	second_go
146.408	1.791	X	1	720	second_go
148.308	1.391	+	NA	0	second_fix
149.809	1.69	X	1	872	second_go
151.609	1.69	X	1	608	second_go
153.41	1.289	X	1	593	second_go
154.81	1.289	X	1	664	second_go
156.211	1.688	X	1	638	second_go
158.011	1.488	X	1	596	second_go
159.612	1.687	A	1	0	second_nogo
161.412	1.587	X	1	649	second_go
163.113	1.286	X	1	574	second_go
164.498	1.501	X	1	665	second_go
166.098	1.401	X	1	586	second_go
167.598	1.201	X	1	635	second_go
168.898	1.501	I	1	0	second_nogo
170.498	1.401	X	1	517	second_go
171.998	1.401	X	1	558	second_go
173.499	1.5	X	1	640	second_go
175.099	1.4	X	1	457	second_go
176.6	1.699	X	1	453	second_go
178.4	1.699	Q	1	0	second_nogo
180.201	1.698	X	1	535	second_go
182.001	1.798	N	1	0	second_nogo
183.902	1.197	X	1	614	second_go
185.202	1.797	X	1	655	second_go
187.103	1.496	X	1	564	second_go
188.703	1.796	X	1	552	second_go
190.604	1.595	X	1	578	second_go
192.304	1.395	C	1	0	second_nogo
193.805	1.594	R	1	0	second_nogo
195.505	1.594	E	1	0	second_nogo
197.206	1.293	X	1	522	second_go
198.606	1.693	X	1	607	second_go
200.407	1.792	X	1	624	second_go
202.307	1.692	X	1	576	second_go
204.108	1.491	I	1	0	second_nogo
205.708	1.791	X	1	508	second_go
207.609	1.29	X	1	670	second_go
209.009	1.49	X	1	750	second_go
210.609	1.79	X	1	877	second_go
212.51	1.589	X	1	636	second_go
214.211	1.188	X	1	615	second_go
215.511	1.588	X	1	822	second_go
217.211	1.388	X	1	476	second_go
218.712	1.487	X	1	628	second_go
220.312	1.687	U	1	0	second_nogo
222.098	1.801	P	1	0	second_nogo
223.998	1.801	X	1	574	second_go
225.898	1.501	X	1	591	second_go
227.498	1.801	X	1	495	second_go
229.398	1.401	X	1	535	second_go
230.899	1.5	X	1	708	second_go
232.499	1.7	C	1	0	second_nogo
234.3	1.499	+	NA	0	second_fix
235.9	1.499	X	1	579	second_go
237.501	1.398	X	1	469	second_go
239.001	1.398	X	1	633	second_go
240.501	1.198	L	1	0	second_nogo
241.802	1.797	X	1	635	second_go
243.702	1.397	X	1	628	second_go
245.203	1.796	X	1	463	second_go
247.103	1.296	B	1	0	second_nogo
248.504	1.695	X	1	623	second_go
250.304	1.795	X	1	578	second_go
252.205	1.394	X	1	593	second_go
253.705	1.594	+	NA	0	second_fix
255.406	1.593	X	1	677	second_go
257.106	1.693	X	1	529	second_go
258.907	1.292	X	1	489	second_go
260.307	1.192	X	1	496	second_go
261.607	1.792	X	1	953	second_go
263.508	1.591	D	1	0	second_nogo
265.208	1.391	X	1	840	second_go
266.709	1.29	M	1	0	second_nogo
268.109	1.39	X	1	607	second_go
269.61	1.389	X	1	619	second_go
271.11	1.789	X	1	551	second_go
273.011	1.488	X	1	645	second_go
274.611	1.388	X	1	524	second_go
276.112	1.387	X	1	621	second_go
277.612	1.187	X	1	577	second_go
278.912	1.587	X	1	673	second_go
280.598	1.501	X	1	634	second_go
282.198	1.701	O	1	0	second_nogo
283.998	1.501	O	1	0	second_nogo
285.598	1.501	X	1	735	second_go
287.198	1.601	X	1	926	second_go
288.899	1.7	B	1	0	second_nogo
290.699	1.4	D	1	0	second_nogo
292.2	1.199	X	1	834	second_go
293.5	1.599	+	NA	0	second_fix
295.2	1.199	U	1	0	second_nogo
296.501	1.198	X	1	864	second_go
297.801	1.398	X	1	827	second_go
299.302	1.597	X	1	611	second_go
301.002	1.597	X	1	585	second_go
302.703	1.396	+	NA	0	second_fix
304.203	1.496	X	1	624	second_go
305.803	1.696	+	NA	0	second_fix
307.604	1.695	X	1	769	second_go
309.404	1.495	X	1	591	second_go
311.005	1.294	R	1	0	second_nogo
312.405	1.794	X	1	601	second_go
314.306	1.193	X	1	614	second_go
315.606	1.593	X	1	681	second_go
317.307	1.292	J	1	0	second_nogo
318.707	1.292	X	1	550	second_go
320.108	1.491	X	1	643	second_go
321.708	1.491	F	1	0	second_nogo
323.308	1.291	X	1	714	second_go
324.709	1.79	X	1	658	second_go
326.609	1.69	X	1	684	second_go
328.41	1.489	+	NA	0	second_fix
330.01	1.789	X	1	676	second_go
331.911	1.188	X	1	516	second_go
333.211	1.388	J	1	0	second_nogo
334.712	1.487	A	1	0	second_nogo
336.312	1.387	L	1	0	second_nogo
337.813	1.286	X	1	632	second_go
339.198	1.501	G	1	0	second_nogo
340.798	1.201	+	NA	0	second_fix
342.098	1.401	X	1	467	second_go
343.598	1.201	X	1	505	second_go
344.898	1.701	X	1	540	second_go
346.699	1.4	X	1	490	second_go
348.199	1.8	X	1	527	second_go
350.099	1.6	X	1	594	second_go
351.8	1.699	S	1	0	second_nogo
353.6	1.599	X	1	616	second_go
355.301	1.798	T	1	0	second_nogo
357.202	1.497	N	1	0	second_nogo
358.802	1.697	X	1	624	second_go
360.602	1.197	X	1	581	second_go
361.903	1.296	+	NA	0	second_fix
363.303	1.796	S	1	0	second_nogo
365.204	1.695	X	1	645	second_go
367.004	1.595	X	1	619	second_go
368.705	1.794	X	1	599	second_go
370.605	1.394	G	1	0	second_nogo
372.106	1.293	X	1	687	second_go
373.506	1.393	+	NA	0	second_fix
375.007	1.692	X	1	580	second_go
376.807	1.792	X	1	610	second_go
378.708	1.191	P	1	0	second_nogo
380.008	1.491	E	1	0	second_nogo
381.609	1.49	H	1	0	second_nogo
383.209	1.29	X	1	477	second_go
384.609	1.19	Q	1	0	second_nogo
385.91	1.389	X	1	553	second_go
387.41	1.489	X	1	631	second_go
389.011	1.688	T	1	0	second_nogo
390.811	1.688	X	1	522	second_go
392.612	1.787	X	1	573	second_go
394.512	1.187	M	1	0	second_nogo
395.813	1.486	+	NA	0	second_fix
397.398	1.501	F	1	0	second_nogo
398.998	1.301	X	1	575	second_go
400.398	1.701	X	1	375	second_go
402.198	1.301	X	1	442	second_go
403.598	1.701	X	1	431	second_go
405.399	1.4	X	1	411	second_go
406.899	1.4	X	1	414	second_go
408.4	1.599	X	1	423	second_go
410.1	1.299	H	1	0	second_nogo
411.5	1.799	X	1	376	second_go
413.401	1.698	+	NA	0	second_fix
415.201	1.498	X	1	614	second_go
